Jaz Data File
++++++++++++++++++++++++++++++++++++
Date: Wed Feb 07 06:54:36 2024
User: jaz
Dark Spectrum Present: Yes
Reference Spectrum Present: Yes
Processed Spectrum Present: Yes
Spectrometers: JAZA3692
Integration Time (usec): 43800 (JAZA3692)
Spectra Averaged: 1 (JAZA3692)
Boxcar Smoothing: 0 (JAZA3692)
Correct for Electrical Dark: No (JAZA3692)
Strobe/Lamp Enabled: Yes (JAZA3692)
Correct for Detector Non-linearity: No (JAZA3692)
Correct for Stray Light: No (JAZA3692)
Number of Pixels in Processed Spectrum: 2048
>>>>>Begin Processed Spectral Data<<<<<
W	D	R	S	P
190.244385	0.000000	0.000000	0.000000	0.000000
190.627136	0.000000	0.000000	0.000000	0.000000
191.009842	892.004150	873.799988	846.493713	250.000168
191.392532	855.595825	892.004150	901.106262	125.000084
191.775177	960.269775	844.218201	892.004150	58.823524
192.157791	967.096313	969.371887	887.453125	-3499.916748
192.540390	892.004150	894.279663	944.341125	2300.008057
192.922943	939.790100	935.239075	946.616638	-150.000000
193.305481	980.749451	928.412476	889.728638	173.913025
193.687958	917.034912	937.514587	917.034912	0.000000
194.070419	967.096313	905.657288	935.239075	51.851795
194.452866	948.892151	935.239075	928.412476	150.000443
194.835251	932.963501	985.300537	921.585938	-21.739029
195.217621	917.034912	907.932800	851.044800	724.997803
195.599960	962.545288	939.790100	939.790100	100.000000
195.982254	932.963501	944.341125	894.279663	-339.999237
196.364517	973.922913	955.718750	939.790100	187.500046
196.746750	967.096313	976.198425	994.402588	299.999329
197.128952	967.096313	892.004150	923.861450	57.575733
197.511139	864.697876	919.310425	919.310425	100.000000
197.893280	962.545288	889.728638	932.963501	40.625031
198.275391	953.443237	907.932800	862.422363	200.000000
198.657471	903.381775	937.514587	871.524475	-93.333359
199.039520	948.892151	935.239075	955.718750	-50.000446
199.421539	917.034912	998.953613	912.483826	-5.555614
199.803513	951.167725	973.922913	921.585938	-130.000183
200.185471	953.443237	983.024963	937.514587	-53.846249
200.567383	967.096313	985.300537	953.443237	-74.999496
200.949265	951.167725	1010.331238	921.585938	-50.000053
201.331131	898.830688	964.820801	948.892151	75.862068
201.712967	923.861450	898.830688	930.687988	-27.272594
202.094742	903.381775	942.065613	882.902100	-52.941166
202.476517	944.341125	887.453125	903.381775	71.999985
202.858231	976.198425	973.922913	944.341125	1400.005371
203.239944	1044.463989	903.381775	962.545288	58.064514
203.621582	937.514587	1030.810913	932.963501	-4.878098
204.003235	953.443237	955.718750	907.932800	-2000.008057
204.384827	951.167725	932.963501	892.004150	324.999176
204.766388	969.371887	903.381775	873.799988	144.827606
205.147934	873.799988	901.106262	898.830688	91.666481
205.529449	923.861450	910.208313	946.616638	-166.666367
205.910904	910.208313	955.718750	937.514587	60.000027
206.292343	903.381775	978.473938	821.463013	-109.090958
206.673767	885.177612	907.932800	957.994263	320.000214
207.055115	871.524475	985.300537	935.239075	56.000004
207.436462	948.892151	896.555176	944.341125	8.695621
207.817780	955.718750	917.034912	878.351013	200.000153
208.199051	853.320313	910.208313	939.790100	152.000046
208.580307	832.840637	976.198425	903.381775	49.206352
208.961517	903.381775	957.994263	928.412476	45.833290
209.342712	905.657288	905.657288	853.320313	0.000000
209.723846	955.718750	969.371887	869.248962	-633.332764
210.104965	969.371887	957.994263	912.483826	499.999451
210.486069	914.759338	946.616638	917.034912	7.143022
210.867111	912.483826	962.545288	921.585938	18.181873
211.248123	905.657288	885.177612	844.218201	300.000305
211.629120	926.136963	917.034912	910.208313	175.000671
212.010071	873.799988	971.647400	919.310425	46.511642
212.390991	857.871338	946.616638	932.963501	84.615372
212.771881	946.616638	937.514587	871.524475	825.002686
213.152756	876.075500	973.922913	880.626526	4.651145
213.533569	864.697876	930.687988	853.320313	-17.241316
213.914368	876.075500	951.167725	837.391663	-51.515106
214.295135	903.381775	896.555176	903.381775	-0.000000
214.675858	923.861450	967.096313	935.239075	26.315857
215.056549	866.973450	901.106262	932.963501	193.333176
215.437225	832.840637	907.932800	887.453125	72.727280
215.817841	910.208313	932.963501	860.146851	-220.000214
216.198441	973.922913	855.595825	866.973450	90.384598
216.579025	880.626526	932.963501	1010.331238	247.826157
216.959549	942.065613	878.351013	880.626526	96.428589
217.340057	932.963501	1003.504700	946.616638	19.354841
217.720535	889.728638	860.146851	926.136963	-123.076828
218.100967	953.443237	923.861450	910.208313	146.153870
218.481369	939.790100	948.892151	969.371887	325.001343
218.861740	910.208313	939.790100	866.973450	-146.153656
219.242065	912.483826	944.341125	882.902100	-92.856979
219.622391	869.248962	935.239075	905.657288	55.172394
220.002670	896.555176	896.555176	864.697876	0.000000
220.382919	926.136963	928.412476	892.004150	-1500.005371
220.763123	944.341125	937.514587	885.177612	866.669373
221.143295	873.799988	973.922913	844.218201	-29.545469
221.523453	921.585938	928.412476	992.127075	1033.336914
221.903549	848.769287	942.065613	866.973450	19.512197
222.283630	892.004150	926.136963	989.851563	286.666718
222.663696	932.963501	1001.229126	1023.984375	133.333389
223.043701	980.749451	939.790100	930.687988	122.222305
223.423676	862.422363	930.687988	928.412476	96.666679
223.803635	944.341125	946.616638	839.667175	-4600.016113
224.183548	980.749451	955.718750	930.687988	200.000244
224.563431	935.239075	1012.606750	930.687988	-5.882413
224.943283	946.616638	987.576050	930.687988	-38.888863
225.323105	951.167725	960.269775	923.861450	-300.001343
225.702881	901.106262	898.830688	923.861450	-999.975830
226.082642	853.320313	903.381775	914.759338	122.727188
226.462357	905.657288	1046.739624	907.932800	1.612897
226.842041	907.932800	1055.841675	917.034912	6.153864
227.221695	857.871338	980.749451	889.728638	25.925936
227.601318	935.239075	978.473938	882.902100	-121.052711
227.980911	921.585938	1028.535400	889.728638	-29.787247
228.360474	917.034912	939.790100	869.248962	-210.000244
228.739990	905.657288	957.994263	860.146851	-86.956566
229.119476	946.616638	1042.188477	937.514587	-9.523779
229.498932	971.647400	1119.556274	873.799988	-66.153847
229.878372	871.524475	1171.893188	857.871338	-4.545459
230.257736	928.412476	1171.893188	930.687988	0.934576
230.637115	855.595825	1112.729614	896.555176	15.929198
231.016449	946.616638	1158.240112	948.892151	1.075265
231.395737	853.320313	1115.005249	887.453125	13.043476
231.774994	912.483826	1083.147949	962.545288	29.333324
232.154221	921.585938	1183.270874	898.830688	-8.695666
232.533417	894.279663	1051.290649	926.136963	20.289854
232.912582	926.136963	1037.637451	921.585938	-4.081619
233.291702	821.463013	1030.810913	926.136963	50.000000
233.670792	910.208313	1049.015137	964.820801	39.344238
234.049866	926.136963	1058.117188	855.595825	-53.448261
234.428894	853.320313	1074.045776	901.106262	21.649496
234.807892	932.963501	1089.974487	896.555176	-23.188393
235.186874	880.626526	1135.484863	912.483826	12.500003
235.565781	989.851563	1046.739624	919.310425	-123.999893
235.944687	957.994263	1103.627563	851.044800	-73.437508
236.323547	917.034912	1105.903076	919.310425	1.204815
236.702377	960.269775	1039.912964	971.647400	14.285748
237.081177	873.799988	1101.352051	889.728638	7.000002
237.459946	869.248962	1178.719727	964.820801	30.882347
237.838669	969.371887	1149.138062	937.514587	-17.721521
238.217361	955.718750	1140.035889	912.483826	-23.456812
238.596039	953.443237	1083.147949	910.208313	-33.333347
238.974670	937.514587	1133.209351	951.167725	6.976751
239.353271	901.106262	1126.382813	964.820801	28.282810
239.731842	930.687988	1169.617676	955.718750	10.476204
240.110367	901.106262	1158.240112	912.483826	4.424763
240.488876	871.524475	1167.342163	930.687988	19.999992
240.867340	896.555176	1235.607788	928.412476	9.395975
241.245789	894.279663	1119.556274	955.718750	27.272732
241.624176	910.208313	1233.332275	939.790100	9.154935
242.002548	955.718750	1319.802124	976.198425	5.624996
242.380890	882.902100	1308.424438	960.269775	18.181812
242.759186	907.932800	1454.057739	917.034912	1.666672
243.137451	894.279663	1481.364014	866.973450	-4.651157
243.515686	917.034912	1556.456177	912.483826	-0.711751
243.893890	885.177612	1658.854614	896.555176	1.470583
244.272049	948.892151	1479.088501	946.616638	-0.429183
244.650192	926.136963	1567.833862	907.932800	-2.836879
245.028290	844.218201	1415.373901	939.790100	16.733072
245.406357	901.106262	1369.863525	919.310425	3.883495
245.784393	907.932800	1372.139038	944.341125	7.843136
246.162384	928.412476	1365.312500	948.892151	4.687497
246.540359	919.310425	1454.057739	937.514587	3.404255
246.918289	901.106262	1636.099487	901.106262	0.000000
247.296204	894.279663	1656.579102	978.473938	11.044777
247.674057	926.136963	1952.396851	1037.637451	10.864742
248.051895	844.218201	2207.255127	1010.331238	12.186980
248.429703	914.759338	2129.887451	985.300537	5.805248
248.807465	942.065613	2079.825928	989.851563	4.200002
249.185196	835.116150	2002.458252	1083.147949	21.247568
249.562897	917.034912	1781.732788	1051.290649	15.526318
249.940567	921.585938	1695.262939	1049.015137	16.470594
250.318192	919.310425	1595.140137	976.198425	8.417505
250.695801	901.106262	1567.833862	1008.055725	16.040953
251.073349	885.177612	1522.323364	1003.504700	18.571432
251.450882	937.514587	1495.017212	964.820801	4.897953
251.828400	937.514587	1469.986450	1035.361938	18.376060
252.205872	935.239075	1510.945801	969.371887	5.928854
252.583313	907.932800	1599.691162	989.851563	11.842107
252.960693	896.555176	1590.588989	967.096313	10.163934
253.338074	812.360901	1604.242188	998.953613	23.563217
253.715408	848.769287	1677.058838	955.718750	12.912086
254.092682	944.341125	1615.619751	1046.739624	15.254247
254.469955	903.381775	1504.119263	971.647400	11.363637
254.847198	848.769287	1456.333252	910.208313	10.112355
255.224365	887.453125	1449.506714	969.371887	14.574903
255.601563	869.248962	1415.373901	980.749451	20.416662
255.978683	960.269775	1424.476074	1005.780212	9.803925
256.355743	814.636475	1458.608887	985.300537	26.501766
256.732819	962.545288	1410.822876	967.096313	1.015225
257.109894	951.167725	1454.057739	1042.188477	18.099535
257.486877	914.759338	1451.782227	980.749451	12.288137
257.863831	930.687988	1583.762451	967.096313	5.574912
258.240753	901.106262	1670.232300	1008.055725	13.905323
258.617645	898.830688	1663.405762	989.851563	11.904766
258.994507	914.759338	1795.385864	1039.912964	14.211884
259.371307	923.861450	1947.845825	1014.882263	8.888886
259.748108	1019.433350	1929.641602	1023.984375	0.499998
260.124878	896.555176	2145.816162	1008.055725	8.925321
260.501617	946.616638	2327.857666	1083.147949	9.884685
260.878296	912.483826	2685.114502	1142.311401	12.965340
261.254944	887.453125	2778.410889	1231.056763	18.170879
261.631561	912.483826	2569.062988	1126.382813	12.912090
262.008179	914.759338	2264.143311	1055.841675	10.455314
262.384735	907.932800	2154.918213	1060.392700	12.226278
262.761261	937.514587	1997.907227	1078.596802	13.304715
263.137695	901.106262	1881.855713	1103.627563	20.649647
263.514191	855.595825	1815.865601	960.269775	10.900474
263.890594	912.483826	1745.324463	937.514587	3.005468
264.267029	962.545288	1795.385864	1003.504700	4.918037
264.643341	880.626526	1672.507813	989.851563	13.793107
265.019653	885.177612	1758.977539	985.300537	11.458335
265.395935	857.871338	1763.528564	907.932800	5.527639
265.772217	935.239075	1740.773438	1053.566162	14.689266
266.148407	917.034912	1779.457275	1101.352051	21.372026
266.524597	928.412476	1818.141113	994.402588	7.416881
266.900726	928.412476	1849.998413	1105.903076	19.259256
267.276855	896.555176	1929.641602	1023.984375	12.334805
267.652924	944.341125	1991.080688	1019.433350	7.173917
268.028992	976.198425	2027.489014	1035.361938	5.627704
268.404999	1003.504700	2032.040039	1026.259888	2.212387
268.781006	914.759338	2034.315552	1030.810913	10.365855
269.156921	919.310425	2011.560425	1030.810913	10.208330
269.532837	928.412476	2000.182739	1012.606750	7.855627
269.908661	921.585938	1991.080688	1001.229126	7.446805
270.284546	923.861450	2009.284912	1026.259888	9.433962
270.660339	919.310425	2050.244141	1012.606750	8.249496
271.036133	905.657288	2068.448486	1046.739624	12.133075
271.411835	892.004150	2063.897461	1069.494751	15.145628
271.787537	869.248962	2266.418701	1096.801025	16.286644
272.163239	894.279663	2571.338623	1117.280762	13.297153
272.538849	960.269775	2598.644775	1076.321289	7.083330
272.914459	960.269775	2453.011475	1067.219238	7.164633
273.290070	905.657288	2430.256104	1083.147949	11.641794
273.665588	866.973450	2387.021240	1033.086426	10.928142
274.041046	932.963501	2323.306641	989.851563	4.091656
274.416565	889.728638	2325.582275	1080.872437	13.312206
274.791962	951.167725	2216.357178	1033.086426	6.474817
275.167389	889.728638	2264.143311	973.922913	6.125828
275.542755	928.412476	2136.714111	1062.668213	11.111111
275.918060	971.647400	2179.948975	1010.331238	3.201505
276.293365	939.790100	2179.948975	1058.117188	9.541285
276.668640	917.034912	2220.908203	1101.352051	14.136124
277.043854	942.065613	2341.510986	1103.627563	11.544713
277.419037	944.341125	2323.306641	996.678101	3.795379
277.794189	914.759338	2291.449463	1108.178589	14.049584
278.169312	860.146851	2330.133301	1103.627563	16.563467
278.544373	910.208313	2261.867676	1010.331238	7.407408
278.919464	892.004150	2236.836914	1062.668213	12.690356
279.294464	896.555176	2318.755615	1117.280762	15.520005
279.669464	862.422363	2236.836914	1001.229126	10.099338
280.044403	889.728638	2239.112549	983.024963	6.913994
280.419312	926.136963	2302.827148	1044.463989	8.595037
280.794189	896.555176	2380.194824	1033.086426	9.202454
281.169037	896.555176	2366.541748	1053.566162	10.681117
281.543854	953.443237	2566.787354	1030.810913	4.795485
281.918671	885.177612	2603.195801	1042.188477	9.139069
282.293365	951.167725	2701.043213	1092.250000	8.062418
282.668091	980.749451	2746.553711	1010.331238	1.675259
283.042786	917.034912	2960.452637	1060.392700	7.015589
283.417419	857.871338	2892.187012	1153.689087	14.541389
283.792053	889.728638	2842.125488	1140.035889	12.820511
284.166595	905.657288	2682.839111	1103.627563	11.139562
284.541138	919.310425	2664.634766	1071.770264	8.735330
284.915619	919.310425	2594.093750	1115.005249	11.684785
285.290100	898.830688	2687.390137	1133.209351	13.104326
285.664520	880.626526	2776.135498	1126.382813	12.965187
286.038940	805.534363	2862.605225	1158.240112	17.146019
286.413300	876.075500	2846.676514	1169.617676	14.896073
286.787628	887.453125	2935.421875	1199.199463	15.222221
287.161896	889.728638	3147.045166	1117.280762	10.080648
287.536194	835.116150	3108.361328	1242.434326	17.917917
287.910400	901.106262	3005.962891	1244.709839	16.324322
288.284607	869.248962	2869.431641	1203.750488	16.723549
288.658752	921.585938	2812.543701	1187.821899	14.079424
289.032867	951.167725	2662.359375	1128.658325	10.372339
289.406921	946.616638	2851.227539	1165.066650	11.469535
289.781006	957.994263	2778.410889	1194.648438	13.000001
290.154999	889.728638	2792.063965	1294.771362	21.291868
290.529022	898.830688	2883.084961	1244.709839	17.431190
290.902954	928.412476	3165.249512	1249.260864	14.343843
291.276825	930.687988	3192.555664	1310.699951	16.800804
291.650757	930.687988	3044.646729	1297.046875	17.330465
292.024597	928.412476	3081.055176	1312.975464	17.864693
292.398407	885.177612	3071.953125	1319.802124	19.875134
292.772156	889.728638	2912.666504	1256.087524	18.110239
293.145905	871.524475	2807.992676	1287.944824	21.504114
293.519592	821.463013	2726.073975	1344.832764	27.479090
293.893280	871.524475	2924.044189	1253.812012	18.625278
294.266907	878.351013	2880.809326	1287.944824	20.454550
294.640533	857.871338	2994.585449	1258.363037	18.743345
295.014069	928.412476	3210.759766	1406.271851	20.937191
295.387604	860.146851	3283.576416	1378.965576	21.408449
295.761078	932.963501	3345.015625	1429.027100	20.566038
296.134552	903.381775	3363.219727	1417.649414	20.906567
296.507996	869.248962	3360.944336	1303.873413	17.442921
296.881378	921.585938	3504.302002	1388.067749	18.061676
297.254730	903.381775	3549.812500	1401.720825	18.830610
297.628021	894.279663	3863.834229	1558.731689	22.375477
298.001282	942.065613	3868.385254	1538.252075	20.373253
298.374573	942.065613	3813.772949	1595.140137	22.741682
298.747803	939.790100	3745.507324	1460.884399	18.572588
299.121002	880.626526	3581.669678	1510.945801	23.336142
299.494141	967.096313	3335.913574	1431.302612	19.596542
299.867188	928.412476	3281.301025	1556.456177	26.692453
300.240265	942.065613	3304.056152	1499.568237	23.603085
300.613312	894.279663	3092.432861	1390.343262	22.567287
300.986328	937.514587	3124.290039	1365.312500	19.562956
301.359314	910.208313	3249.443604	1281.118164	15.856030
301.732239	887.453125	3115.187988	1331.179688	19.918283
302.105103	896.555176	3217.586426	1388.067749	21.176474
302.477997	932.963501	3140.218750	1338.006226	18.350515
302.850830	919.310425	3122.014648	1397.169800	21.694216
303.223602	917.034912	2976.381104	1328.904175	20.000002
303.596375	905.657288	2930.870850	1292.495850	19.101124
303.969116	887.453125	2894.462402	1353.934937	23.242634
304.341766	930.687988	2873.982666	1219.679199	14.871199
304.714478	866.973450	2933.146240	1344.832764	23.127750
305.087067	857.871338	2860.329590	1383.516602	26.249998
305.459656	841.942688	3026.442627	1383.516602	24.791664
305.832214	928.412476	2878.533936	1351.659302	21.703613
306.204681	964.820801	2962.728027	1372.139038	20.387245
306.577148	919.310425	2876.258301	1360.761475	22.558140
306.949646	892.004150	2949.074951	1363.036987	22.898232
307.322021	935.239075	2914.942139	1372.139038	22.068964
307.694397	876.075500	2903.564453	1276.567139	19.753086
308.066742	869.248962	2896.738037	1397.169800	26.038160
308.439026	903.381775	2930.870850	1385.792114	23.793488
308.811279	951.167725	3008.238525	1326.628662	18.252213
309.183502	898.830688	3188.004639	1413.098389	22.465210
309.555695	919.310425	3240.341553	1322.077637	17.352942
309.927887	935.239075	3308.607178	1363.036987	18.024929
310.299988	887.453125	3217.586426	1399.445313	21.972656
310.672058	882.902100	3258.545898	1369.863525	20.498083
311.044128	939.790100	3397.352539	1388.067749	18.240742
311.416168	853.320313	3420.107666	1356.210449	19.592201
311.788147	944.341125	3358.668701	1422.200562	19.792650
312.160065	930.687988	3306.331787	1499.568237	23.946362
312.531982	905.657288	3399.628174	1419.924927	20.620434
312.903870	957.994263	3372.321777	1347.108276	16.116869
313.275696	910.208313	3151.596191	1308.424438	17.766497
313.647491	907.932800	3299.505127	1319.802124	17.221697
314.019318	942.065613	3076.504150	1392.618774	21.108744
314.391022	955.718750	3151.596191	1392.618774	19.896376
314.762726	855.595825	3201.657715	1431.302612	24.539282
315.134369	800.983337	3231.239502	1447.231201	26.591761
315.505981	914.759338	3449.689453	1408.547363	19.479355
315.877594	955.718750	3488.373291	1438.129150	19.047619
316.249146	914.759338	3326.811523	1367.588013	18.773584
316.620636	948.892151	3240.341553	1381.241089	18.867924
316.992157	919.310425	3096.983887	1363.036987	20.376177
317.363586	878.351013	2978.656738	1308.424438	20.476706
317.735016	919.310425	2999.136475	1244.709839	15.645510
318.106354	905.657288	2990.034424	1190.097412	13.646289
318.477722	878.351013	2955.901611	1328.904175	21.686749
318.849060	955.718750	3062.851074	1303.873413	16.522676
319.220306	841.942688	3019.616211	1394.894287	25.391850
319.591522	921.585938	3094.708252	1317.526489	18.219893
319.962738	1001.229126	3142.494141	1283.393677	13.177469
320.333923	857.871338	3253.994629	1356.210449	20.797724
320.705017	980.749451	3156.147461	1347.108276	16.841003
321.076111	962.545288	3117.463379	1358.485962	18.373817
321.447144	882.902100	3122.014648	1317.526489	19.410564
321.818176	885.177612	2844.401123	1344.832764	23.461088
322.189178	816.911987	2892.187012	1290.220337	22.807020
322.560120	887.453125	2933.146240	1317.526489	21.023357
322.931030	939.790100	3126.565674	1301.597900	16.545263
323.301910	898.830688	3149.320801	1208.301514	13.751263
323.672729	880.626526	3294.954102	1333.455200	18.755892
324.043549	857.871338	3495.199951	1394.894287	20.362383
324.414337	832.840637	3772.813477	1406.271851	19.504642
324.785095	882.902100	3900.242676	1435.853638	18.325790
325.155792	1014.882263	3845.630127	1413.098389	14.067524
325.526428	923.861450	3897.967041	1392.618774	15.761288
325.897034	894.279663	3777.364502	1424.476074	18.389898
326.267670	901.106262	3665.864014	1383.516602	17.448557
326.638184	892.004150	3811.497314	1381.241089	16.757599
327.008728	896.555176	3868.385254	1378.965576	16.232773
327.379211	962.545288	3841.079102	1403.996338	15.335970
327.749634	873.799988	3677.241699	1381.241089	18.100647
328.120026	921.585938	3613.527100	1369.863525	16.652578
328.490417	921.585938	3602.149414	1406.271851	18.081493
328.860748	921.585938	3511.128662	1306.148926	14.850614
329.231079	862.422363	3422.383301	1365.312500	19.644445
329.601318	901.106262	3333.637939	1363.036987	18.989710
329.971558	896.555176	3472.444824	1333.455200	16.961132
330.341736	928.412476	3481.546875	1369.863525	17.290554
330.711914	939.790100	3476.995850	1274.291626	13.183855
331.082062	914.759338	3533.883789	1335.730713	16.072981
331.452148	921.585938	3422.383301	1335.730713	16.560509
331.822174	946.616638	3520.230713	1328.904175	14.854114
332.192200	889.728638	3581.669678	1324.353149	16.145395
332.562134	928.412476	3729.578613	1333.455200	14.459790
332.932129	905.657288	3706.823486	1426.751587	18.602762
333.302063	948.892151	3806.946289	1526.874512	20.222933
333.671906	885.177612	4000.365479	1479.088501	19.065010
334.041718	926.136963	3843.354736	1463.159912	18.408737
334.411499	973.922913	3984.437012	1431.302612	15.192743
334.781281	935.239075	4002.641113	1504.119263	18.545994
335.151001	1037.637451	3966.232666	1472.261963	14.840716
335.520721	898.830688	3797.844238	1422.200562	18.053377
335.890350	957.994263	3816.048340	1408.547363	15.764330
336.259979	919.310425	3847.905762	1385.792114	15.928514
336.629547	921.585938	3995.814453	1401.720825	15.618061
336.999084	889.728638	3850.181152	1392.618774	16.986935
337.368622	928.412476	3847.905762	1438.129150	17.459082
337.738098	983.024963	3975.334961	1363.036987	12.699620
338.107513	830.565063	3963.957275	1394.894287	18.010170
338.476898	912.483826	3922.997803	1440.404663	17.535904
338.846252	887.453125	3886.589600	1372.139038	16.160849
339.215576	907.932800	4045.875977	1454.057739	17.403915
339.584869	873.799988	4023.120850	1390.343262	16.401735
339.954132	885.177612	3973.059326	1374.414551	15.843771
340.323334	841.942688	3806.946289	1369.863525	17.805065
340.692505	973.922913	3827.426025	1417.649414	15.550237
341.061646	923.861450	3686.343750	1360.761475	15.815486
341.430786	851.044800	3788.742188	1360.761475	17.350891
341.799896	887.453125	3845.630127	1424.476074	18.153849
342.168915	871.524475	3988.988037	1438.129150	18.175182
342.537903	873.799988	4007.192139	1424.476074	17.574440
342.906830	951.167725	3948.028564	1435.853638	16.173120
343.275757	946.616638	4116.416992	1460.884399	16.223980
343.644684	814.636475	4291.632324	1474.537476	18.979055
344.013550	914.759338	4155.101074	1397.169800	14.887641
344.382355	930.687988	4312.111816	1406.271851	14.064604
344.751129	957.994263	4760.389648	1460.884399	13.225614
345.119873	923.861450	4844.583984	1449.506714	13.406846
345.488586	935.239075	5049.380859	1586.037964	15.818583
345.857269	928.412476	4924.227051	1526.874512	14.977222
346.225891	955.718750	5078.962402	1488.190552	12.913906
346.594482	978.473938	5210.942871	1533.701050	13.118280
346.963043	903.381775	4974.288574	1545.078613	15.762996
347.331543	878.351013	4885.542969	1513.221313	15.843271
347.700043	896.555176	4694.399414	1522.323364	16.476931
348.068512	892.004150	4607.929688	1467.710938	15.492958
348.436951	937.514587	4528.286621	1501.843750	15.716096
348.805328	919.310425	4564.694824	1479.088501	15.355804
349.173645	921.585938	4421.336914	1458.608887	15.344604
349.541931	876.075500	4332.591797	1376.690063	14.483212
349.910217	932.963501	4623.858398	1531.425537	16.214550
350.278473	939.790100	4803.624512	1392.618774	11.719670
350.646667	912.483826	4701.226074	1517.772339	15.975975
351.014801	832.840637	4865.063477	1356.210449	12.979685
351.382935	957.994263	4744.460938	1504.119263	14.423077
351.751007	907.932800	4821.828613	1479.088501	14.593023
352.119049	882.902100	4726.256836	1501.843750	16.104202
352.487091	892.004150	4753.562988	1388.067749	12.846201
352.855072	857.871338	4956.084473	1415.373901	13.603553
353.222992	948.892151	4969.737305	1495.017212	13.582345
353.590881	926.136963	5090.339844	1529.150024	14.480875
353.958740	889.728638	5122.197266	1556.456177	15.752687
354.326599	939.790100	5370.229004	1554.180664	13.867487
354.694397	935.239075	5527.240234	1636.099487	15.262636
355.062134	917.034912	5647.842773	1622.446289	14.911014
355.429840	1003.504700	5663.771484	1652.028076	13.916015
355.797516	992.127075	5693.353027	1649.752563	13.988382
356.165192	919.310425	5961.864258	1718.018188	15.839351
356.532776	894.279663	5895.874512	1615.619751	14.422202
356.900360	921.585938	6114.324219	1661.130127	14.241892
357.267883	903.381775	6284.988281	1658.854614	14.038054
357.635376	917.034912	6644.520508	1847.722900	16.249504
358.002808	848.769287	6892.552734	1768.079712	15.210844
358.370270	846.493713	7149.686523	1843.171875	15.812275
358.737640	892.004150	7324.901367	1827.243164	14.538379
359.105011	937.514587	7070.042969	1774.906250	13.654917
359.472321	944.341125	6724.164063	1786.283813	14.566929
359.839569	882.902100	6646.796387	1797.661377	15.870507
360.206787	876.075500	6660.449219	1758.977539	15.263573
360.574005	851.044800	7013.155273	1829.518677	15.878877
360.941193	912.483826	7229.329590	1838.620850	14.661385
361.308319	894.279663	7582.035156	1968.325439	16.059885
361.675415	907.932800	8216.905273	1979.703125	14.663761
362.042450	894.279663	8924.592773	2045.693237	14.338340
362.409424	928.412476	9202.206055	2204.979736	15.429044
362.776428	932.963501	9491.197266	2127.612061	13.959056
363.143402	851.044800	9024.715820	2020.662476	14.309576
363.510284	962.545288	8387.569336	1995.631714	13.913577
363.877136	942.065613	7372.687500	1961.498901	15.852795
364.243988	980.749451	7138.308594	1854.549438	14.190688
364.610779	964.820801	6699.133301	1793.110352	14.444444
364.977539	921.585938	6489.785156	1688.436401	13.771965
365.344269	923.861450	6478.407715	1774.906250	15.321589
365.710938	910.208313	6121.150879	1647.477051	14.148472
366.077576	953.443237	6107.498047	1772.630737	15.894040
366.444183	878.351013	6018.752441	1713.467163	16.246128
366.810760	905.657288	5995.997070	1658.854614	14.796602
367.177277	912.483826	6218.998535	1704.365112	14.922813
367.543823	901.106262	6316.845703	1718.018188	15.084034
367.910248	892.004150	6300.916992	1736.222412	15.607909
368.276642	894.279663	6080.191406	1670.232300	14.962705
368.643036	887.453125	6032.405762	1667.956787	15.170279
369.009399	932.963501	5836.710938	1665.681274	14.941997
369.375671	878.351013	5791.200684	1665.681274	16.025938
369.741974	901.106262	5850.363770	1590.588989	13.931034
370.108215	964.820801	6014.201660	1647.477051	13.519603
370.474396	898.830688	5980.068848	1656.579102	14.912672
370.840546	919.310425	6050.609863	1633.823975	13.924613
371.206665	923.861450	6077.916016	1702.089600	15.099339
371.572784	998.953613	6068.813965	1597.415649	11.804310
371.938843	873.799988	6385.111328	1699.814087	14.987614
372.304840	912.483826	6307.743652	1688.436401	14.382117
372.670807	905.657288	6275.886230	1733.946899	15.423730
373.036713	928.412476	6287.264160	1727.120239	14.904458
373.402649	876.075500	6121.150879	1708.916138	15.878526
373.768524	912.483826	6153.008301	1661.130127	14.285713
374.134308	889.728638	6244.029297	1661.130127	14.407138
374.500122	864.697876	6266.784180	1638.375000	14.321820
374.865875	896.555176	6280.437500	1686.160889	14.666102
375.231567	898.830688	6421.519531	1654.303589	13.679440
375.597260	871.524475	6530.744629	1720.293701	14.997989
375.962891	869.248962	6642.245117	1727.120239	14.860070
376.328461	905.657288	6940.338379	1824.967651	15.233786
376.694031	871.524475	7017.706055	1781.732788	14.809330
377.059540	910.208313	7274.839844	1743.048950	13.085450
377.425049	942.065613	7650.300781	1836.345337	13.331073
377.790497	873.799988	8053.068359	1879.580200	14.009508
378.155945	942.065613	8059.894531	1984.254150	14.641943
378.521301	955.718750	7959.771973	1929.641602	13.905132
378.886597	901.106262	7641.198730	1829.518677	13.774476
379.251892	880.626526	7456.881836	1790.834839	13.840830
379.617157	948.892151	7088.247070	1758.977539	13.194960
379.982422	955.718750	6840.215332	1711.191650	12.838361
380.347595	919.310425	6883.450195	1786.283813	14.536437
380.712738	903.381775	6785.603027	1758.977539	14.545454
381.077820	812.360901	6924.409668	1758.977539	15.487714
381.442902	923.861450	6928.960938	1697.538574	12.883669
381.807953	901.106262	7138.308594	1779.457275	14.082452
382.172974	942.065613	6951.715820	1852.273926	15.145778
382.537933	971.647400	7045.012207	1774.906250	13.225928
382.902832	896.555176	6792.429688	1806.763550	15.438055
383.267700	866.973450	6867.521973	1777.181763	15.168753
383.632538	919.310425	7170.166016	1786.283813	13.869676
383.997345	998.953613	7349.932129	1781.732788	12.325332
384.362152	898.830688	7568.382324	1845.447388	14.193109
384.726898	889.728638	7481.912598	1920.539551	15.636865
385.091553	869.248962	7591.137207	1834.069824	14.353420
385.456238	864.697876	7552.453613	1763.528564	13.439944
385.820862	944.341125	7456.881836	1822.692139	13.487072
386.185425	957.994263	7652.576660	1872.753662	13.664174
386.549988	855.595825	7820.964844	1836.345337	14.080367
386.914490	860.146851	7698.086914	1804.488037	13.810317
387.278961	928.412476	7864.199707	1890.957764	13.877954
387.643372	944.341125	7850.546875	1840.896362	12.981879
388.007782	942.065613	8114.507324	1831.794189	12.404821
388.372101	896.555176	8248.762695	1831.794189	12.720520
388.736450	944.341125	7930.189941	1995.631714	15.048860
389.100739	896.555176	7871.026367	1831.794189	13.409461
389.464966	914.759338	8034.863770	1925.090576	14.189837
389.829163	921.585938	7764.077148	1872.753662	13.900898
390.193329	889.728638	7832.342773	1884.131226	14.323173
390.557495	898.830688	7786.832031	1859.100464	13.941195
390.921570	880.626526	7937.016602	1902.335449	14.479201
391.285614	957.994263	8255.589844	1897.784302	12.878078
391.649597	862.422363	8590.090820	2018.386963	14.958776
392.013550	910.208313	9215.859375	2041.142212	13.616438
392.377502	932.963501	9404.727539	2025.213501	12.892829
392.741455	917.034912	9275.022461	2047.968750	13.531175
393.105316	932.963501	9174.899414	1988.805176	12.810603
393.469086	976.198425	8956.450195	1956.947876	12.289705
393.832886	905.657288	8697.040039	1861.375977	12.266356
394.196655	948.892151	9024.715820	1915.988525	11.975204
394.560333	967.096313	8951.898438	1938.743774	12.168711
394.924042	896.555176	9311.430664	1934.192627	12.330991
395.287659	880.626526	9252.267578	1915.988525	12.367493
395.651245	928.412476	9099.807617	1925.090576	12.197160
396.014771	889.728638	8883.632813	1877.304688	12.354114
396.378296	971.647400	8567.335938	1772.630737	10.545237
396.741791	985.300537	8269.242188	1738.497925	10.340520
397.105255	903.381775	8317.028320	1761.253052	11.571516
397.468628	851.044800	8062.170410	1784.008301	12.937835
397.832001	926.136963	8023.486328	1774.906250	11.958961
398.195313	944.341125	8348.885742	1672.507813	9.834051
398.558624	923.861450	8266.966797	1804.488037	11.992563
398.921844	926.136963	8305.651367	1733.946899	10.946654
399.285095	921.585938	8046.241699	1729.395752	11.338229
399.648254	896.555176	8182.772949	1774.906250	12.054966
400.011383	919.310425	8226.007813	1652.028076	10.028028
400.374451	930.687988	8150.915527	1765.804199	11.566342
400.737549	942.065613	8339.784180	1772.630737	11.227314
401.100586	841.942688	8207.803711	1702.089600	11.677480
401.463562	901.106262	8212.354492	1631.548462	9.990664
401.826508	841.942688	8344.334961	1829.518677	13.163482
402.189392	923.861450	8255.589844	1697.538574	10.552452
402.552246	844.218201	8617.397461	1702.089600	11.036301
402.915070	946.616638	8210.079102	1754.426514	11.121553
403.277893	896.555176	8617.397461	1763.528564	11.229000
403.640656	937.514587	8785.786133	1806.763550	11.075674
404.003326	903.381775	9240.889648	1754.426514	10.207423
404.366028	926.136963	9022.440430	1722.569214	9.836986
404.728699	848.769287	9523.054688	1772.630737	10.650578
405.091248	880.626526	9889.413086	1895.508789	11.265471
405.453857	876.075500	9680.065430	1827.243164	10.803824
405.816345	860.146851	9470.717773	1781.732788	10.702959
406.178833	944.341125	9657.310547	1724.844727	8.957952
406.541260	923.861450	9807.495117	1909.161987	11.091188
406.903687	896.555176	9404.727539	1815.865601	10.805029
407.266052	905.657288	9318.257813	1779.457275	10.386800
407.628387	919.310425	9341.012695	1649.752563	8.673331
407.990662	869.248962	9106.633789	1622.446289	9.143646
408.352905	910.208313	9140.766602	1770.355225	10.450650
408.715118	898.830688	9277.297852	1697.538574	9.532865
409.077332	985.300537	8942.796875	1667.956787	8.578782
409.439484	957.994263	9391.074219	1608.793213	7.717216
409.801575	944.341125	9090.706055	1688.436401	9.134078
410.163605	951.167725	9479.819336	1638.375000	8.057631
410.525635	955.718750	9634.554688	1672.507813	8.259047
410.887604	898.830688	9925.821289	1777.181763	9.730276
411.249573	876.075500	9882.586914	1654.303589	8.640727
411.611481	889.728638	9750.606445	1663.405762	8.731382
411.973328	930.687988	9609.524414	1645.201538	8.232827
412.335144	998.953613	9716.473633	1658.854614	7.569825
412.696930	912.483826	9570.840820	1608.793213	8.042049
413.058685	914.759338	9432.034180	1579.211426	7.801229
413.420410	980.749451	9416.105469	1586.037964	7.175613
413.782104	946.616638	9686.891602	1645.201538	7.992711
414.143707	917.034912	9673.239258	1613.344238	7.952182
414.505310	921.585938	9586.769531	1604.242188	7.878151
414.866852	878.351013	9604.973633	1626.997314	8.578877
415.228394	885.177612	9832.525391	1579.211426	7.756866
415.589874	896.555176	10039.597656	1583.762451	7.516177
415.951324	896.555176	10098.761719	1581.486938	7.443125
416.312683	944.341125	10558.416992	1545.078613	6.248520
416.674072	921.585938	10522.007813	1631.548462	7.395118
417.035370	892.004150	10904.295898	1652.028076	7.590909
417.396667	910.208313	11150.051758	1674.783325	7.466667
417.757935	896.555176	11172.807617	1615.619751	6.997343
418.119141	887.453125	11798.575195	1636.099487	6.861314
418.480286	876.075500	12133.077148	1615.619751	6.569638
418.841400	1005.780212	12551.772461	1608.793213	5.222704
419.202484	885.177612	13034.183594	1667.956787	6.443154
419.563568	937.514587	13361.858398	1681.609863	5.989011
419.924591	937.514587	14260.688477	1752.151001	6.114432
420.285553	889.728638	14219.729492	1793.110352	6.777057
420.646484	898.830688	15389.347656	1811.314575	6.297111
421.007355	878.351013	15753.430664	1806.763550	6.241395
421.368225	853.320313	16620.404297	1856.824951	6.364554
421.729065	892.004150	16961.732422	1815.865601	5.749079
422.089874	860.146851	17610.255859	1886.406738	6.126884
422.450592	942.065613	17207.488281	1943.294800	6.155568
422.811279	851.044800	17189.283203	1893.233276	6.378830
423.171936	953.443237	16948.078125	1888.682251	5.847205
423.532593	876.075500	16868.435547	1929.641602	6.587934
423.893127	935.239075	17287.130859	1927.366089	6.067353
424.253723	928.412476	17521.509766	1950.121338	6.157433
424.614197	985.300537	17291.681641	1925.090576	5.763327
424.974670	955.718750	18163.207031	2047.968750	6.347527
425.335052	978.473938	18185.962891	1986.529663	5.858239
425.695496	953.443237	17214.314453	2013.835938	6.521131
426.055817	989.851563	17341.744141	1904.610962	5.594211
426.416168	969.371887	17255.273438	1879.580200	5.588934
426.776398	939.790100	16233.565430	1961.498901	6.680553
427.136627	887.453125	15805.767578	1845.447388	6.421598
427.496826	939.790100	15589.592773	1802.212524	5.886922
427.856995	955.718750	15164.070313	1879.580200	6.502243
428.217102	903.381775	14529.200195	1790.834839	6.513026
428.577179	967.096313	14192.422852	1761.253052	6.004818
428.937195	828.289551	13976.249023	1847.722900	7.753548
429.297180	862.422363	13291.317383	1813.590088	7.652874
429.657135	926.136963	13418.746094	1665.681274	5.919855
430.017059	996.678101	13600.788086	1738.497925	5.885539
430.376984	923.861450	13423.296875	1599.691162	5.406882
430.736786	907.932800	12945.437500	1727.120239	6.805293
431.096588	955.718750	12977.294922	1745.324463	6.568238
431.456360	876.075500	12972.744141	1761.253052	7.317532
431.816071	957.994263	12738.365234	1679.334351	6.123238
432.175781	926.136963	12879.447266	1749.875488	6.891300
432.535400	930.687988	13029.631836	1674.783325	6.150085
432.895020	866.973450	12697.406250	1533.701050	5.635699
433.254578	923.861450	13034.183594	1786.283813	7.121382
433.614105	989.851563	13534.797852	1729.395752	5.895156
433.973602	892.004150	13514.318359	1729.395752	6.634216
434.333038	876.075500	13846.543945	1758.977539	6.807017
434.692444	894.279663	13737.319336	1686.160889	6.165839
435.051819	901.106262	13973.973633	1665.681274	5.848564
435.411133	921.585938	14046.790039	1640.650513	5.478502
435.770416	967.096313	13075.142578	1661.130127	5.732005
436.129669	919.310425	14026.310547	1708.916138	6.024305
436.488861	917.034912	13527.970703	1788.559326	6.910862
436.848083	907.932800	13562.103516	1686.160889	6.149973
437.207184	903.381775	13564.379883	1567.833862	5.248023
437.566254	851.044800	13769.176758	1572.384888	5.583935
437.925293	857.871338	13862.472656	1677.058838	6.299212
438.284363	896.555176	14165.117188	1656.579102	5.728005
438.643311	926.136963	14342.607422	1556.456177	4.698100
439.002258	962.545288	14240.208984	1615.619751	4.918594
439.361145	901.106262	14888.732422	1718.018188	5.840247
439.719971	903.381775	15325.632813	1672.507813	5.332912
440.078827	937.514587	15557.735352	1672.507813	5.027237
440.437592	932.963501	16090.208008	1665.681274	4.834109
440.796295	855.595825	16153.921875	1690.711914	5.458872
441.155029	887.453125	17064.130859	1768.079712	5.443804
441.513672	948.892151	17375.876953	1731.671387	4.765203
441.872253	864.697876	17205.212891	1736.222412	5.333519
442.230865	903.381775	17075.507813	1784.008301	5.445335
442.589386	932.963501	17048.201172	1790.834839	5.323355
442.947876	905.657288	16386.025391	1772.630737	5.600471
443.306335	862.422363	16399.677734	1706.640625	5.433509
443.664764	885.177612	15828.522461	1645.201538	5.086036
444.023102	882.902100	15726.124023	1642.926025	5.120343
444.381500	910.208313	15553.184570	1545.078613	4.335664
444.739777	873.799988	15783.012695	1642.926025	5.158730
445.098022	932.963501	16247.218750	1617.895264	4.472511
445.456238	880.626526	16413.332031	1645.201538	4.922356
445.814423	880.626526	16677.291016	1629.272949	4.739269
446.172577	912.483826	17821.878906	1656.579102	4.400485
446.530701	957.994263	17901.521484	1768.079712	4.781091
446.888733	907.932800	18104.042969	1733.946899	4.803494
447.246765	903.381775	19371.507813	1784.008301	4.768359
447.604736	964.820801	18572.800781	1752.151001	4.471439
447.962677	896.555176	18768.496094	1793.110352	5.016551
448.320587	894.279663	18971.017578	1824.967651	5.148540
448.678436	926.136963	18231.472656	1827.243164	5.207100
449.036255	882.902100	18135.900391	1786.283813	5.236085
449.394043	887.453125	17089.162109	1788.559326	5.561797
449.751770	919.310425	17455.519531	1690.711914	4.664924
450.109467	876.075500	17139.222656	1697.538574	5.051071
450.467163	876.075500	16954.906250	1811.314575	5.816586
450.824768	892.004150	16747.833984	1738.497925	5.338691
451.182343	901.106262	16508.904297	1756.702026	5.481848
451.539886	846.493713	15787.563477	1797.661377	6.366128
451.897369	889.728638	15821.696289	1793.110352	6.049984
452.254822	955.718750	15910.441406	1863.651489	6.071211
452.612274	889.728638	16365.545898	1929.641602	6.719600
452.969635	937.514587	16042.421875	1897.784302	6.357336
453.326965	826.014038	16147.095703	2034.315552	7.886528
453.684326	839.667175	15985.533203	1943.294800	7.286659
454.041534	905.657288	15421.204102	1972.876587	7.352250
454.398773	989.851563	15239.163086	2029.764526	7.297987
454.755951	903.381775	14704.415039	1970.601074	7.732894
455.113098	953.443237	14333.505859	2004.733887	7.857143
455.470215	878.351013	14886.457031	2150.367188	9.080571
455.827240	905.657288	14467.761719	2129.887451	9.026846
456.184265	939.790100	14344.882813	2195.877686	9.370227
456.541260	853.320313	14563.333008	2339.235352	10.838174
456.898193	905.657288	14338.056641	2230.010498	9.859395
457.255096	816.911987	14451.833008	2391.572266	11.548731
457.611969	910.208313	14347.158203	2437.082764	11.363252
457.968781	894.279663	14338.056641	2391.572266	11.137440
458.325531	930.687988	15052.570313	2482.593262	10.989366
458.682312	928.412476	15685.165039	2669.185791	11.796453
459.039001	939.790100	16511.179688	2858.054199	12.319159
459.395630	892.004150	16929.875000	3012.789551	13.223609
459.752289	876.075500	18545.494141	3222.137451	13.277529
460.108856	914.759338	19642.294922	3502.026611	13.815311
460.465363	926.136963	20502.443359	3686.343750	14.099732
460.821899	876.075500	20427.349609	3859.283203	15.258381
461.178345	848.769287	19778.826172	3811.497314	15.650920
461.534760	994.402588	19205.396484	3802.395264	15.419217
461.891144	889.728638	18263.330078	3727.302979	16.332678
462.247467	901.106262	17312.162109	3647.659912	16.735996
462.603760	962.545288	17223.416016	3684.068115	16.736637
462.960052	910.208313	16577.169922	3618.078125	17.283951
463.316254	910.208313	16010.564453	3636.282227	18.053043
463.672424	896.555176	15864.930664	3581.669678	17.938583
464.028564	878.351013	15259.642578	3620.353516	19.066454
464.384644	930.687988	15182.274414	3634.006836	18.968548
464.740723	901.106262	15448.510742	3841.079102	20.209604
465.096741	914.759338	15384.795898	3813.772949	20.034599
465.452698	871.524475	15296.050781	3781.915527	20.176683
465.808655	969.371887	15293.775391	3938.926514	20.730740
466.164520	901.106262	15225.509766	4014.018799	21.731535
466.520355	889.728638	15871.757813	4375.826660	23.268532
466.876190	937.514587	16067.452148	4357.622559	22.604904
467.231964	973.922913	16215.361328	4318.938477	21.946850
467.587677	857.871338	16661.363281	4617.031738	23.786898
467.943390	871.524475	16588.546875	4746.736328	24.656145
468.299011	907.932800	16153.921875	4637.511230	24.462685
468.654633	928.412476	16035.594727	4630.685059	24.506704
469.010223	923.861450	16190.330078	4774.042480	25.219854
469.365723	896.555176	15539.531250	4671.644043	25.780884
469.721191	903.381775	15596.419922	4828.655273	26.715193
470.076660	901.106262	15139.040039	4837.757324	27.649035
470.432068	901.106262	15500.847656	4892.369629	27.337906
470.787445	923.861450	14993.406250	4667.093262	26.605209
471.142792	903.381775	15107.182617	4774.042480	27.250879
471.498016	896.555176	15343.836914	4976.563965	28.240669
471.853271	903.381775	15626.000977	5131.299316	28.717155
472.208496	896.555176	15337.009766	5160.881348	29.530415
472.563660	903.381775	15687.440430	5119.921875	28.520855
472.918762	905.657288	15717.022461	5195.014160	28.959902
473.273865	939.790100	16420.158203	5490.831543	29.398794
473.628876	907.932800	16577.169922	5561.373047	29.697939
473.983917	919.310425	16845.679688	5700.179688	30.018576
474.338837	898.830688	16690.945313	5636.464844	30.000000
474.693787	869.248962	16456.566406	5465.800781	29.489050
475.048645	951.167725	16502.076172	5779.822754	31.050632
475.403503	957.994263	16643.158203	5800.302734	30.871902
475.758270	889.728638	16795.619141	5907.251953	31.545065
476.113037	898.830688	16827.476563	6023.303711	32.171432
476.467773	948.892151	17202.937500	6323.672363	33.067341
476.822418	937.514587	18122.248047	6507.989258	32.415249
477.177063	889.728638	17742.236328	6426.070801	32.851742
477.531647	807.809875	18110.869141	6580.806152	33.364021
477.886200	896.555176	18891.373047	6717.337402	32.346992
478.240723	932.963501	19030.179688	6906.205566	33.006413
478.595184	866.973450	19457.978516	6924.409668	32.582615
478.949585	905.657288	19592.234375	7283.941895	34.132977
479.303986	873.799988	19685.531250	7318.074707	34.256683
479.658325	969.371887	19931.287109	7340.830078	33.601341
480.012634	873.799988	20090.572266	7397.718262	33.949085
480.366913	887.453125	20579.810547	7882.404297	35.521145
480.721130	926.136963	21146.414063	7896.057129	34.469952
481.075317	844.218201	22136.265625	8082.649902	33.995941
481.429474	937.514587	23082.882813	8756.204102	35.306206
481.783569	914.759338	24038.601563	9359.216797	36.518398
482.137604	926.136963	25083.066406	9554.912109	35.719669
482.491669	923.861450	27929.742188	10542.488281	35.616787
482.845612	866.973450	30978.939453	11473.175781	35.222549
483.199554	951.167725	34697.140625	13170.714844	36.210384
483.553436	896.555176	40647.628906	15525.878906	36.802338
483.907318	857.871338	47194.300781	18220.095703	37.469925
484.261139	928.412476	53442.882813	21075.873047	38.365543
484.614899	860.146851	55315.636719	22386.574219	39.530319
484.968628	869.248962	55247.371094	22982.759766	40.666195
485.322357	907.932800	52143.558594	21312.527344	39.825012
485.675964	932.963501	48812.195313	19442.048828	38.657860
486.029572	914.759338	44577.453125	17869.664063	38.831558
486.383148	894.279663	41990.183594	16447.464844	37.846073
486.736694	939.790100	39962.695313	15842.175781	38.188816
487.090149	962.545288	39990.003906	16044.697266	38.644978
487.443604	903.381775	41186.925781	16497.525391	38.710953
487.796997	914.759338	42966.382813	17348.570313	39.080086
488.150360	880.626526	44199.714844	17919.726563	39.333927
488.503693	955.718750	45096.269531	18440.820313	39.612331
488.856964	942.065613	44233.847656	18028.951172	39.469120
489.210175	901.106262	41532.804688	16811.546875	39.157703
489.563416	910.208313	39173.089844	15910.441406	39.203094
489.916565	898.830688	37065.957031	15296.050781	39.807476
490.269653	989.851563	34660.734375	14281.168945	39.474216
490.622772	946.616638	33559.378906	13864.748047	39.610664
490.975769	871.524475	33727.769531	14244.759766	40.702263
491.328735	855.595825	35097.632813	14690.762695	40.404045
491.681732	853.320313	37154.703125	15839.900391	41.283772
492.034607	946.616638	39655.500000	16536.208984	40.273941
492.387482	935.239075	40040.062500	17004.966797	41.093979
492.740326	901.106262	39107.101563	16602.199219	41.095886
493.093079	864.697876	36990.867188	15628.277344	40.866718
493.445862	848.769287	33832.441406	14670.282227	41.904106
493.798523	917.034912	31297.513672	13227.602539	40.521309
494.151215	923.861450	28680.664063	12581.354492	41.998688
494.503815	960.269775	26939.890625	11639.289063	41.105370
494.856384	919.310425	25576.853516	11024.898438	40.983757
495.208923	976.198425	24252.500000	10592.549805	41.313915
495.561432	964.820801	23756.437500	10157.924805	40.335461
495.913879	873.799988	23333.189453	10082.833008	41.003044
496.266296	871.524475	23847.457031	10337.691406	41.200363
496.618683	853.320313	23688.171875	10528.834961	42.371700
496.970978	910.208313	24309.388672	10731.356445	41.972191
497.323273	896.555176	24543.767578	10672.192383	41.339489
497.675507	912.483826	24869.166016	10824.652344	41.375385
498.027710	923.861450	24885.095703	10770.040039	41.092117
498.379852	885.177612	24334.419922	10583.447266	41.358562
498.731995	835.116150	24263.878906	10892.917969	42.929291
499.084076	898.830688	23697.273438	10428.711914	41.800575
499.436096	903.381775	23563.017578	10487.875000	42.297646
499.788086	928.412476	22828.025391	10176.128906	42.227764
500.140106	937.514587	22605.023438	10242.119141	42.942657
500.491943	903.381775	22097.582031	9907.617188	42.484428
500.843842	885.177612	21731.224609	9827.974609	42.899246
501.195679	844.218201	21267.017578	9620.902344	42.974934
501.547455	855.595825	20795.984375	9586.769531	43.786377
501.899231	912.483826	20807.361328	9409.278320	42.708458
502.250885	917.034912	20695.861328	9297.778320	42.372299
502.602600	855.595825	20666.279297	9261.370117	42.430511
502.954193	978.473938	20331.779297	9106.633789	41.998821
503.305786	898.830688	20097.400391	9102.083008	42.728451
503.657379	994.402588	20600.289063	9386.523438	42.804089
504.008820	898.830688	20283.992188	9234.063477	42.998001
504.360291	923.861450	20916.587891	9450.238281	42.647396
504.711700	903.381775	21280.669922	9575.391602	42.557228
505.063080	898.830688	20957.546875	9725.576172	44.004536
505.414368	862.422363	21121.384766	9477.543945	42.524986
505.765656	944.341125	20893.832031	9634.554688	43.561081
506.116943	896.555176	20570.708984	9347.839844	42.956284
506.468109	878.351013	20477.412109	9368.319336	43.318245
506.819305	917.034912	20709.515625	9447.961914	43.101856
507.170410	919.310425	20472.861328	9361.492188	43.174675
507.521484	846.493713	20830.117188	9570.840820	43.657482
507.872559	944.341125	20468.310547	9429.757813	43.461536
508.223480	955.718750	20802.810547	9420.656250	42.650768
508.574493	951.167725	21201.027344	9523.054688	42.330597
508.925385	866.973450	21619.722656	9784.739258	42.971489
509.276245	905.657288	21692.539063	10164.750977	44.542969
509.627045	928.412476	21826.794922	10130.618164	44.033100
509.977814	903.381775	22104.408203	10194.333008	43.823116
510.328613	889.728638	22493.523438	10123.791992	42.742783
510.679260	878.351013	22404.777344	10233.016602	43.456661
511.029999	851.044800	22498.074219	10508.355469	44.612637
511.380585	926.136963	23010.066406	10679.019531	44.162804
511.731140	917.034912	22960.005859	10685.845703	44.317123
512.081726	896.555176	23219.414063	10565.243164	43.312943
512.432129	821.463013	23360.496094	10792.794922	44.240284
512.782654	876.075500	23592.599609	10954.357422	44.365425
513.133057	967.096313	23685.896484	10970.286133	44.030445
513.483398	921.585938	23326.363281	10749.560547	43.865532
513.833801	976.198425	23510.681641	10952.082031	44.269417
514.183960	992.127075	23180.730469	10740.458008	43.933956
514.534302	887.453125	23062.404297	10774.590820	44.586964
514.884460	939.790100	23101.087891	10779.141602	44.398808
515.234619	914.759338	22700.595703	10510.630859	44.046375
515.584717	903.381775	22630.054688	10273.976563	43.129448
515.934753	955.718750	22812.095703	10444.640625	43.414890
516.284851	932.963501	22800.718750	10617.580078	44.287197
516.634766	955.718750	23353.669922	10779.141602	43.858578
516.984741	901.106262	23531.160156	11088.613281	45.017597
517.334595	903.381775	24561.970703	11209.215820	43.560642
517.684448	946.616638	25192.291016	11657.493164	44.176445
518.034363	953.443237	26371.009766	12142.178711	44.019695
518.384094	889.728638	27592.964844	12442.547852	43.263741
518.733826	905.657288	28503.173828	12959.090820	43.675793
519.083496	869.248962	29174.453125	13452.878906	44.456947
519.433167	869.248962	29190.380859	13389.164063	44.206970
519.782776	951.167725	28798.992188	13493.837891	45.040035
520.132324	896.555176	28682.939453	13188.918945	44.238800
520.481873	882.902100	28089.029297	12899.927734	44.170292
520.831299	887.453125	27445.056641	12483.506836	43.663780
521.180786	871.524475	26710.062500	12194.515625	43.822105
521.530151	923.861450	26441.550781	12055.708984	43.624043
521.879517	901.106262	25572.302734	11775.820313	44.078583
522.228882	907.932800	26163.937500	11850.912109	43.328232
522.578064	885.177612	25167.259766	11475.451172	43.613533
522.927307	987.576050	25843.089844	11652.942383	42.909458
523.276489	983.024963	25408.464844	11725.758789	43.981739
523.625610	885.177612	25720.210938	11809.953125	43.989372
523.974792	896.555176	26330.050781	12044.332031	43.831085
524.323792	894.279663	26948.992188	12597.283203	44.917034
524.672852	905.657288	27251.636719	12788.426758	45.102783
525.021790	907.932800	28532.755859	13122.928711	44.217464
525.370728	953.443237	29859.384766	13587.134766	43.706211
525.719604	869.248962	31752.617188	14517.822266	44.193924
526.068420	855.595825	33252.183594	15148.141602	44.117443
526.417297	921.585938	34401.324219	15676.062500	44.069870
526.765991	864.697876	35429.859375	15773.910156	43.133640
527.114746	978.473938	36399.230469	16731.904297	44.475136
527.463379	928.412476	38160.484375	17230.244141	43.784382
527.812012	919.310425	40156.117188	18272.431641	44.226639
528.160706	887.453125	43601.253906	20186.144531	45.181396
528.509155	880.626526	48680.214844	22443.460938	45.110920
528.857727	910.208313	52662.378906	25087.617188	46.717670
529.206177	876.075500	55422.585938	26605.388672	47.169491
529.554565	914.759338	55893.617188	26361.908203	46.285332
529.902893	896.555176	54414.527344	25533.619141	46.035122
530.251221	896.555176	51624.742188	23945.304688	45.435783
530.599548	921.585938	47813.242188	21653.855469	44.213131
530.947876	880.626526	43831.082031	20236.207031	45.064899
531.296021	951.167725	40561.160156	18663.822266	44.717640
531.644165	860.146851	37823.707031	17168.804688	44.120911
531.992249	901.106262	36424.261719	16433.810547	43.725574
532.340454	860.146851	35673.339844	16074.279297	43.702206
532.688354	894.279663	35812.144531	16308.657227	44.144676
533.036438	932.963501	37254.828125	16822.925781	43.747650
533.384338	919.310425	39241.355469	17858.287109	44.201649
533.732239	894.279663	41368.968750	18577.351563	43.689213
534.080139	898.830688	41471.367188	18884.546875	44.329784
534.427917	914.759338	41070.875000	18463.576172	43.701477
534.775757	894.279663	38809.007813	17557.917969	43.950306
535.123474	914.759338	37329.917969	16886.640625	43.860527
535.471191	935.239075	35120.386719	15846.726563	43.619781
535.818848	844.218201	33673.156250	15300.601563	44.035492
536.166382	880.626526	32387.488281	14934.243164	44.604939
536.513977	971.647400	33295.421875	15061.671875	43.590282
536.861511	989.851563	33488.839844	15257.367188	43.901413
537.208984	910.208313	33909.812500	15282.397461	43.552608
537.556396	939.790100	33673.156250	14972.926758	42.871048
537.903809	919.310425	32683.304688	14652.078125	43.233757
538.251160	892.004150	31452.248047	14276.617188	43.797470
538.598389	889.728638	30077.833984	13753.248047	44.071102
538.945740	957.994263	28899.113281	13434.674805	44.653477
539.292969	910.208313	28714.796875	13159.336914	44.054344
539.640137	923.861450	28694.316406	13159.336914	44.059326
539.987244	873.799988	29049.298828	13047.835938	43.207882
540.334351	955.718750	30350.896484	13600.788086	43.017494
540.681458	898.830688	31850.464844	14670.282227	44.493454
541.028442	912.483826	34895.113281	16219.912109	45.044865
541.375366	917.034912	37766.820313	17730.857422	45.628006
541.722290	807.809875	41066.324219	19321.447266	45.986885
542.069153	871.524475	42975.484375	19628.642578	44.549530
542.416016	864.697876	42650.085938	19919.908203	45.602573
542.762756	848.769287	41535.082031	19300.966797	45.352345
543.109558	964.820801	40224.382813	18431.718750	44.490814
543.456299	862.422363	38444.925781	17633.009766	44.623390
543.802917	896.555176	36324.136719	16925.324219	45.243759
544.149536	939.790100	35074.878906	15967.329102	44.023727
544.496094	912.483826	32967.746094	15125.386719	44.338753
544.842651	992.127075	31331.646484	14115.055664	43.253582
545.189148	937.514587	29586.322266	13593.960938	44.177914
545.535583	923.861450	28871.808594	13357.306641	44.487865
545.882019	887.453125	28048.070313	13216.224609	45.392090
546.228333	917.034912	27715.843750	13236.704102	45.970959
546.574707	957.994263	27693.087891	13273.113281	46.063496
546.920898	926.136963	27727.220703	13172.990234	45.695366
547.267212	898.830688	27906.986328	12895.375977	44.418228
547.613342	896.555176	27549.730469	12897.652344	45.026897
547.959473	864.697876	27440.505859	12704.232422	44.550041
548.305664	919.310425	26305.019531	12308.291992	44.863750
548.651611	926.136963	25237.800781	11564.196289	43.757019
548.997742	953.443237	24325.316406	11181.909180	43.763996
549.343689	876.075500	23233.068359	10665.366211	43.786263
549.689575	1001.229126	22313.757813	10205.710938	43.188122
550.035522	983.024963	21517.324219	9732.402344	42.608597
550.381287	951.167725	20909.759766	9452.513672	42.594917
550.727173	898.830688	21050.843750	9327.359375	41.824745
551.072876	905.657288	20436.453125	9154.419922	42.234650
551.418640	882.902100	20290.818359	8972.378906	41.681324
551.764282	846.493713	19985.898438	8794.887695	41.528954
552.109863	882.902100	20181.593750	9045.195313	42.294540
552.455505	939.790100	20500.166016	8892.735352	40.658451
552.801025	939.790100	20634.421875	9259.093750	42.241482
553.146545	855.595825	20964.373047	9133.940430	41.167816
553.491943	930.687988	21128.210938	9147.593750	40.682743
553.837341	894.279663	20905.208984	9195.379883	41.482834
554.182800	898.830688	20916.587891	8956.450195	40.252357
554.528015	973.922913	20238.482422	8760.754883	40.420506
554.873352	882.902100	19630.917969	8656.081055	41.461342
555.218628	907.932800	19965.419922	8694.764648	40.859703
555.563721	898.830688	19435.222656	8419.426758	40.572060
555.908875	912.483826	19062.037109	8212.354492	40.220665
556.254028	914.759338	18490.882813	8301.099609	42.024857
556.599121	889.728638	18545.494141	8121.333984	40.958889
556.944031	901.106262	18588.728516	8166.844238	41.078091
557.289063	921.585938	18408.962891	8023.486328	40.611580
557.633972	930.687988	18531.841797	7773.179199	38.875240
557.978882	944.341125	18288.361328	7841.444824	39.766464
558.323792	942.065613	17953.859375	7830.066895	40.489567
558.668518	892.004150	17860.562500	7527.422852	39.104198
559.013306	985.300537	17817.328125	7684.433594	39.799915
559.358032	894.279663	17628.458984	7470.534668	39.298340
559.702637	905.657288	17746.787109	7447.779785	38.846104
560.047363	889.728638	17603.429688	7413.646973	39.033356
560.391846	905.657288	17744.511719	7586.586426	39.675678
560.736450	937.514587	17769.541016	7563.831055	39.367310
561.080933	926.136963	17915.175781	7486.463379	38.615051
561.425354	898.830688	18327.044922	7384.064941	37.211121
561.769775	914.759338	18106.318359	7575.208984	38.742558
562.114136	905.657288	17821.878906	7616.167969	39.669090
562.458496	901.106262	18238.298828	7593.413086	38.600864
562.802673	907.932800	18361.177734	7650.300781	38.631031
563.146912	869.248962	17906.072266	7636.647949	39.722187
563.491150	919.310425	17817.328125	7349.932129	38.055481
563.835266	905.657288	17937.929688	7377.238281	37.995995
564.179443	937.514587	18065.359375	7440.953125	37.969975
564.523438	844.218201	17919.726563	7379.514160	38.272923
564.867493	992.127075	17933.378906	7145.135254	36.319679
565.211426	894.279663	18295.187500	7413.646973	37.465672
565.555359	905.657288	18506.810547	7684.433594	38.513252
565.899231	942.065613	18884.546875	7736.770508	37.869373
566.243042	882.902100	19398.814453	7798.209961	37.347919
566.586914	914.759338	19694.632813	7955.220703	37.489399
566.930603	907.932800	20133.808594	8050.792480	37.152325
567.274292	896.555176	20293.093750	7937.016602	36.297512
567.617981	912.483826	20122.429688	7889.230469	36.318409
567.961609	928.412476	19888.052734	7843.720215	36.473831
568.305237	921.585938	19168.986328	7782.281250	37.598206
568.648682	923.861450	18957.363281	7786.832031	38.056782
568.992188	921.585938	18509.085938	7636.647949	38.180878
569.335632	901.106262	18465.851563	7345.381348	36.688686
569.679016	873.799988	18559.148438	7318.074707	36.438496
570.022461	928.412476	18502.259766	7347.656738	36.527256
570.365662	860.146851	18725.259766	7477.361328	37.039867
570.708984	937.514587	18561.423828	7372.687500	36.513878
571.052185	914.759338	18647.892578	7288.493164	35.942516
571.395386	917.034912	19130.302734	7377.238281	35.469765
571.738525	926.136963	19628.642578	7620.719238	35.795109
572.081604	876.075500	20099.675781	7613.892578	35.049717
572.424683	896.555176	20290.818359	7786.832031	35.527397
572.767578	887.453125	20500.166016	7718.566406	34.830029
573.110596	862.422363	20172.492188	7695.811523	35.387695
573.453552	873.799988	20249.859375	7745.873047	35.466827
573.796387	912.483826	20065.542969	7707.188965	35.475822
574.139282	969.371887	19594.509766	7575.208984	35.467316
574.481995	876.075500	19355.580078	7411.371094	35.365101
574.824768	1012.606750	19316.896484	7572.933105	35.840378
575.167480	923.861450	19528.519531	7384.064941	34.723579
575.510132	944.341125	19107.548828	7315.799316	35.078926
575.852722	921.585938	19244.080078	7347.656738	35.072029
576.195251	901.106262	19098.445313	7283.941895	35.075653
576.537842	967.096313	18859.515625	7211.125488	34.897625
576.880188	976.198425	18572.800781	6894.828125	33.635075
577.222717	946.616638	18185.962891	6856.144043	34.279301
577.565063	930.687988	17940.205078	6812.909180	34.581940
577.907410	889.728638	17589.775391	6546.673340	33.873825
578.249756	907.932800	17093.712891	6476.132324	34.401798
578.591919	871.524475	16663.638672	6305.468262	34.409222
578.934204	948.892151	16267.698242	6244.029297	34.566254
579.276306	978.473938	16370.096680	6118.875488	33.397396
579.618469	853.320313	15889.961914	5934.558105	33.792370
579.960571	853.320313	15519.051758	6036.956543	35.345226
580.302551	921.585938	15421.204102	5898.149902	34.322033
580.644531	939.790100	15503.123047	5688.802246	32.609379
580.986511	964.820801	15323.357422	5629.638672	32.488113
581.328369	964.820801	14852.324219	5559.097168	33.082088
581.670227	930.687988	15013.886719	5515.862305	32.557762
582.012024	905.657288	14440.455078	5395.259766	33.170815
582.353821	887.453125	14838.670898	5513.586914	33.159355
582.695496	973.922913	14699.864258	5342.922852	31.830240
583.037231	944.341125	14408.597656	5263.279785	32.077065
583.378845	873.799988	14763.579102	5224.595703	31.323723
583.720398	919.310425	14504.169922	5297.412598	32.227806
584.062012	892.004150	14406.322266	5463.525391	33.827244
584.403442	912.483826	14551.955078	5286.034668	32.065399
584.744934	955.718750	14303.923828	5192.738281	31.742241
585.086365	907.932800	14283.444336	5172.258789	31.881592
585.427734	942.065613	14242.484375	5106.268555	31.308811
585.768982	901.106262	14035.412109	4987.941406	31.115730
586.110291	907.932800	14042.239258	4915.125000	30.509354
586.451599	903.381775	13935.289063	5115.370605	32.320587
586.792725	901.106262	14035.412109	5042.554199	31.531532
587.133850	951.167725	13937.564453	4990.217285	31.102158
587.474915	935.239075	14269.791016	4917.400391	29.863482
587.815979	907.932800	14224.280273	4858.236816	29.665071
588.157043	923.861450	14053.616211	5012.972168	31.143848
588.497925	871.524475	14258.413086	5015.248047	30.953598
588.838867	967.096313	14276.617188	5008.421387	30.364168
589.179749	985.300537	14397.219727	5117.646484	30.810995
589.520569	921.585938	14588.364258	5049.380859	30.203131
589.861450	892.004150	14576.986328	4951.533203	29.664116
590.202087	978.473938	14624.772461	5094.891113	30.165081
590.542847	871.524475	14886.457031	4960.635254	29.176815
590.883484	939.790100	15070.774414	4965.186523	28.486313
591.224121	939.790100	14840.946289	4830.930664	27.991489
591.564636	905.657288	14759.028320	4906.022949	28.876478
591.905151	971.647400	14599.741211	4908.298340	28.886292
592.245667	935.239075	14620.220703	4792.246582	28.184237
592.585999	882.902100	14306.199219	4714.878906	28.547211
592.926453	882.902100	14222.004883	4585.174316	27.755032
593.266724	912.483826	14130.984375	4537.388672	27.422964
593.607056	882.902100	14215.178711	4642.062500	28.195938
593.947388	876.075500	14322.127930	4541.939453	27.263496
594.287476	910.208313	14303.923828	4473.673828	26.605503
594.627686	894.279663	14467.761719	4614.756348	27.409889
594.967773	898.830688	14820.466797	4758.113770	27.721478
595.307861	928.412476	14811.365234	4587.449707	26.356331
595.647888	898.830688	14838.670898	4723.980957	27.440418
595.987854	882.902100	15170.897461	4653.439941	26.389551
596.327820	926.136963	15441.684570	4694.399414	25.960180
596.667725	928.412476	15842.175781	4940.155762	26.899603
597.007568	930.687988	16609.025391	5017.523438	26.066765
597.347351	948.892151	16923.048828	4994.768066	25.327635
597.687073	926.136963	17582.949219	5183.636230	25.560106
598.026794	969.371887	17089.162109	5010.696777	25.070581
598.366455	905.657288	16597.648438	4928.777832	25.638050
598.706116	926.136963	16208.535156	4749.011719	25.014887
599.045654	851.044800	15662.410156	4744.460938	26.286678
599.385193	901.106262	14931.967773	4512.357910	25.737919
599.724731	898.830688	14438.179688	4348.520020	25.478991
600.064087	939.790100	14251.586914	4152.825684	24.136753
600.403564	828.289551	14151.463867	4209.713379	25.380018
600.742920	887.453125	13714.563477	4054.978027	24.693987
601.082153	935.239075	13746.420898	3961.681641	23.623446
601.421387	905.657288	13550.726563	3968.508301	24.221703
601.760620	919.310425	13375.511719	3913.895752	24.040920
602.099854	887.453125	13566.655273	3977.610352	24.371859
602.438843	987.576050	13776.002930	3932.099854	23.024912
602.778015	994.402588	13755.523438	4023.120850	23.733952
603.117065	876.075500	14592.915039	4066.355713	23.258129
603.456055	978.473938	14542.853516	4057.253662	22.697535
603.794983	989.851563	15011.610352	4300.734375	23.612465
604.133850	905.657288	15578.215820	4237.019531	22.704714
604.472778	935.239075	16119.789063	4378.102051	22.673462
604.811584	948.892151	16672.740234	4460.020996	22.329960
605.150330	905.657288	16954.906250	4651.164551	23.337585
605.489075	930.687988	17243.896484	4669.368652	22.918119
605.827698	898.830688	17152.875000	4587.449707	22.693546
606.166382	878.351013	16731.904297	4573.796875	23.309889
606.504883	887.453125	16147.095703	4307.561035	22.412766
606.843445	1023.984375	15653.307617	4277.979004	22.242960
607.181946	923.861450	15284.672852	4080.008789	21.977501
607.520386	928.412476	14774.957031	4059.529053	22.612982
607.858826	910.208313	14240.208984	3834.252441	21.935814
608.197083	953.443237	13962.595703	3806.946289	21.934580
608.535461	871.524475	14133.259766	3800.119629	22.083046
608.873718	866.973450	14174.218750	3829.701416	22.264023
609.211914	919.310425	14322.127930	3791.017578	21.426144
609.550171	953.443237	14963.825195	3909.344727	21.097937
609.888245	800.983337	15205.030273	4004.916504	22.243284
610.226318	901.106262	15557.735352	4020.845215	21.285515
610.564392	955.718750	15528.154297	4011.743164	20.971268
610.902344	905.657288	15220.958984	4052.702637	21.983788
611.240295	955.718750	15116.285156	4036.773926	21.757994
611.578247	923.861450	14715.792969	4002.641113	22.323050
611.916138	894.279663	14308.474609	3884.313965	22.290075
612.253845	892.004150	14108.228516	3695.445801	21.212122
612.591675	955.718750	13798.757813	3513.404053	19.914953
612.929382	851.044800	13380.062500	3565.741211	21.667273
613.267090	914.759338	12849.866211	3513.404053	21.773117
613.604736	889.728638	12724.711914	3490.648926	21.976545
613.942261	830.565063	12699.681641	3301.780762	20.820555
614.279785	866.973450	12522.191406	3331.362549	21.144085
614.617310	932.963501	12349.250977	3269.923340	20.470404
614.954712	923.861450	12244.577148	3235.790527	20.422112
615.292175	926.136963	12048.882813	3242.617188	20.826513
615.629517	930.687988	12092.117188	3142.494141	19.816513
615.966797	923.861450	12119.423828	3340.464600	21.585365
616.304138	896.555176	11978.341797	3244.892578	21.190964
616.641296	942.065613	12110.321289	3281.301025	20.945395
616.978516	942.065613	11991.994141	3294.954102	21.293245
617.315552	967.096313	12048.882813	3192.555664	20.082136
617.652771	885.177612	12069.362305	3276.750000	21.383520
617.989685	892.004150	11896.422852	3122.014648	20.264683
618.326721	878.351013	11969.239258	3340.464600	22.199425
618.663696	839.667175	12069.362305	3313.158203	22.026340
619.000549	912.483826	12073.913086	3172.075928	20.244646
619.337463	873.799988	12135.352539	3290.403076	21.458879
619.674194	866.973450	11848.636719	3160.698486	20.886864
620.010986	910.208313	11830.432617	3167.524902	20.670973
620.347778	926.136963	11805.402344	3238.066162	21.250784
620.684387	928.412476	12039.780273	3078.779541	19.352858
621.020996	969.371887	11862.290039	3117.463379	19.720074
621.357605	971.647400	11709.830078	3090.157227	19.728756
621.694214	894.279663	11545.992188	3172.075928	21.384319
622.030579	932.963501	11675.697266	3115.187988	20.313496
622.367065	846.493713	11482.278320	3053.749023	20.753103
622.703430	892.004150	11543.716797	3199.382324	21.662039
623.039795	978.473938	11322.991211	3094.708252	20.457546
623.376160	871.524475	11464.074219	3112.912354	21.160042
623.712402	942.065613	11459.522461	3051.473389	20.056252
624.048645	914.759338	11498.207031	3003.687500	19.737692
624.384766	873.799988	11400.359375	2994.585449	20.146996
624.720886	946.616638	11357.124023	3188.004639	21.530054
625.057007	901.106262	11384.430664	3151.596191	21.467331
625.392944	914.759338	11596.053711	3144.769775	20.877718
625.729004	855.595825	11709.830078	3065.126465	20.356394
626.064941	871.524475	11912.351563	3083.330566	20.032974
626.400818	910.208313	11987.443359	3115.187988	19.905506
626.736633	873.799988	12306.016602	3263.096924	20.899681
627.072449	917.034912	12558.599609	3308.607178	20.543392
627.408264	864.697876	12524.466797	3188.004639	19.925838
627.743896	919.310425	12649.620117	3260.821289	19.961201
628.079590	919.310425	12804.355469	3238.066162	19.509863
628.415161	951.167725	12492.609375	3190.280273	19.400631
628.750793	994.402588	12021.576172	3210.759766	20.099051
629.086365	926.136963	12039.780273	2996.860840	18.632269
629.421753	917.034912	11900.973633	3037.820313	19.308060
629.757263	894.279663	11743.962891	3135.667725	20.658558
630.092651	998.953613	11509.583984	3065.126465	19.657934
630.427917	964.820801	11291.133789	3035.544678	20.052889
630.763184	898.830688	11204.664063	3044.646729	20.821373
631.098511	917.034912	11020.347656	2944.523926	20.067568
631.433716	946.616638	10879.264648	2939.972900	20.068727
631.768799	967.096313	10756.386719	2917.217773	19.920969
632.103943	894.279663	10751.835938	2942.248291	20.775621
632.438965	901.106262	10719.978516	2828.472412	19.629202
632.773987	866.973450	10405.957031	2885.360352	21.159351
633.109070	930.687988	10469.670898	2794.339600	19.537216
633.443848	951.167725	10537.936523	2803.441650	19.321150
633.778870	971.647400	10565.243164	2703.318604	18.050283
634.113708	985.300537	10519.732422	2903.564453	20.119331
634.448425	994.402588	10742.733398	2924.044189	19.794584
634.783264	980.749451	10724.529297	2794.339600	18.612797
635.117859	882.902100	10492.426758	2821.645752	20.175230
635.452576	912.483826	10490.151367	2833.023438	20.052267
635.787170	919.310425	10164.750977	2826.196777	20.625154
636.121704	932.963501	10492.426758	2807.992676	19.614378
636.456177	885.177612	10141.996094	2751.104736	20.157328
636.790588	862.422363	10101.037109	2682.839111	19.704433
637.125122	919.310425	9884.862305	2703.318604	19.898476
637.459412	885.177612	10087.383789	2691.941162	19.634026
637.793762	887.453125	9964.505859	2694.216553	19.904736
638.128052	932.963501	9616.350586	2678.288086	20.099585
638.462280	892.004150	9623.177734	2671.461426	20.380505
638.796509	957.994263	9518.503906	2566.787354	18.793192
639.130615	892.004150	9320.533203	2557.685303	19.762417
639.464722	912.483826	9479.819336	2573.614014	19.389109
639.798767	885.177612	9368.319336	2569.062988	19.849785
640.132751	932.963501	9090.706055	2457.562500	18.688982
640.466736	830.565063	9445.686523	2375.643799	17.934498
640.800598	917.034912	9199.930664	2571.338623	19.972528
641.134521	903.381775	9024.715820	2534.930176	20.089659
641.468262	919.310425	8901.836914	2468.940186	19.412773
641.802063	896.555176	8958.725586	2509.899414	20.011290
642.135803	873.799988	8945.072266	2466.664551	19.734985
642.469421	919.310425	8947.347656	2546.307861	20.266441
642.803101	985.300537	8767.582031	2473.491211	19.122808
643.136658	919.310425	8869.980469	2453.011475	19.290211
643.470215	901.106262	8685.663086	2364.266113	18.795673
643.803711	851.044800	8592.366211	2402.949951	20.047031
644.137085	928.412476	8692.489258	2421.154053	19.226259
644.470581	864.697876	8742.550781	2416.603027	19.699594
644.803833	937.514587	8526.375977	2468.940186	20.179913
645.137207	907.932800	8697.040039	2407.500977	19.252117
645.470459	869.248962	8610.570313	2407.500977	19.870665
645.803589	853.320313	8489.967773	2368.817139	19.845055
646.136780	907.932800	8603.744141	2314.204590	18.273209
646.469849	957.994263	8674.285156	2357.439453	18.136242
646.802979	935.239075	8683.387695	2268.694336	17.209988
647.135986	921.585938	8731.172852	2414.327637	19.114222
647.468994	942.065613	8569.611328	2496.246338	20.375895
647.801941	917.034912	8776.683594	2368.817139	18.471338
648.134766	826.014038	8681.112305	2407.500977	20.133255
648.467651	917.034912	8758.479492	2377.919189	18.630297
648.800354	878.351013	8637.876953	2439.358398	20.117302
649.133179	928.412476	8571.886719	2416.603027	19.470079
649.465881	905.657288	8592.366211	2489.419678	20.603909
649.798462	960.269775	8913.214844	2582.716064	20.400572
650.131104	871.524475	8474.039063	2541.756836	21.969473
650.463623	932.963501	8742.550781	2600.920166	21.357807
650.796143	948.892151	8610.570313	2509.899414	20.374222
651.128662	955.718750	8715.245117	2516.726074	20.117302
651.461060	896.555176	8760.754883	2414.327637	19.299770
651.793396	887.453125	8537.753906	2414.327637	19.958359
652.125732	898.830688	8558.233398	2402.949951	19.637552
652.458008	983.024963	8658.356445	2430.256104	18.855618
652.790222	955.718750	8537.753906	2487.144287	20.198080
653.122437	1017.157776	8715.245117	2368.817139	17.558380
653.454529	955.718750	8496.794922	2373.368164	18.799034
653.786621	887.453125	8417.151367	2377.919189	19.794498
654.118713	923.861450	8444.458008	2425.705078	19.969740
654.450623	953.443237	8401.222656	2427.980713	19.798351
654.782654	898.830688	8269.242188	2427.980713	20.747145
655.114502	898.830688	8367.089844	2346.062012	19.378429
655.446350	912.483826	8137.262207	2361.990479	20.062990
655.778198	907.932800	8294.273438	2352.888428	19.562536
656.109863	957.994263	8119.058105	2336.959961	19.256435
656.441650	960.269775	8289.722656	2318.755615	18.534615
656.773254	869.248962	8196.425781	2257.316650	18.944099
657.104919	980.749451	8000.730957	2368.817139	19.773096
657.436462	873.799988	8064.445801	2314.204590	20.031643
657.767944	860.146851	8248.762695	2457.562500	21.619959
658.099548	841.942688	8378.467773	2443.909424	21.256041
658.430908	862.422363	8621.948242	2537.205811	21.583580
658.762268	946.616638	8685.663086	2498.521729	20.052923
659.093628	921.585938	8849.500000	2544.032227	20.464983
659.424927	914.759338	9197.655273	2566.787354	19.945055
659.756226	894.279663	9538.983398	2534.930176	18.978678
660.087341	930.687988	9552.636719	2771.584229	21.351276
660.418518	935.239075	9602.698242	2755.655762	21.002888
660.749573	905.657288	9736.953125	2660.083740	19.866014
661.080627	898.830688	9498.023438	2630.501953	20.137604
661.411621	992.127075	9088.429688	2703.318604	21.135469
661.742554	923.861450	9031.541992	2505.348389	19.506033
662.073547	876.075500	8890.459961	2534.930176	20.698467
662.404297	932.963501	8753.928711	2493.970703	19.959265
662.735229	901.106262	8367.089844	2459.837891	20.877781
663.065979	926.136963	8373.916992	2493.970703	21.051020
663.396667	878.351013	8269.242188	2361.990479	20.073891
663.727417	996.678101	7857.373535	2391.572266	20.331673
664.057922	937.514587	7925.639160	2380.194824	20.644741
664.388611	903.381775	7766.352539	2357.439453	21.187000
664.719116	939.790100	7739.046387	2296.000488	19.946453
665.049622	823.738525	7450.055176	2341.510986	22.905222
665.380005	873.799988	7566.106445	2336.959961	21.863312
665.710388	942.065613	7616.167969	2343.786377	21.002384
666.040771	912.483826	7468.259277	2332.408936	21.659147
666.371033	848.769287	7611.617188	2368.817139	22.476446
666.701294	889.728638	7511.494141	2286.898438	21.099657
667.031555	948.892151	7390.891602	2359.715088	21.900391
667.361633	896.555176	7616.167969	2327.857666	21.300371
667.691772	957.994263	7661.678711	2257.316650	19.382212
668.021790	898.830688	7538.800293	2250.489990	20.356407
668.351807	926.136963	7361.309570	2302.827148	21.393211
668.681763	942.065613	7461.432617	2239.112549	19.895288
669.011719	898.830688	7582.035156	2273.245361	20.565205
669.341614	873.799988	7641.198730	2189.051025	19.435102
669.671387	892.004150	7586.586426	2289.173828	20.870155
670.001221	939.790100	7684.433594	2341.510986	20.782728
670.330933	919.310425	7641.198730	2380.194824	21.733244
670.660583	901.106262	7529.698242	2364.266113	22.073465
670.990173	903.381775	7493.290039	2293.724854	21.098064
671.319763	914.759338	7402.269043	2341.510986	21.992287
671.649292	932.963501	7208.850098	2321.031250	22.117476
671.978821	921.585938	7283.941895	2270.969727	21.208870
672.308289	919.310425	7281.666504	2252.765625	20.958513
672.637695	969.371887	7274.839844	2364.266113	22.121979
672.966980	930.687988	7047.288086	2270.969727	21.912201
673.296326	873.799988	7138.308594	2277.796387	22.411915
673.625610	930.687988	7249.809082	2230.010498	20.561760
673.954773	919.310425	7170.166016	2218.632813	20.786314
674.283936	860.146851	6979.022461	2366.541748	24.618820
674.613037	976.198425	7133.757813	2268.694336	20.990391
674.942078	876.075500	7074.594238	2239.112549	21.989723
675.271118	894.279663	7063.216797	2332.408936	23.312433
675.600098	901.106262	6815.184570	2348.337402	24.470951
675.928955	948.892151	6899.378906	2268.694336	22.179735
676.257813	971.647400	6890.276855	2302.827148	22.491350
676.586670	903.381775	7042.736816	2348.337402	23.535952
676.915466	932.963501	6849.317383	2179.948975	21.076925
677.244141	930.687988	6837.939941	2355.164063	24.114023
677.572876	910.208313	6885.726074	2245.938965	22.353390
677.901489	819.187500	6876.624023	2211.806152	22.990231
678.230042	887.453125	6951.715820	2259.592041	22.626640
678.558594	937.514587	6992.675293	2214.081787	21.082300
678.887085	944.341125	7013.155273	2348.337402	23.134609
679.215515	917.034912	6899.378906	2250.489990	22.289845
679.543945	912.483826	7047.288086	2371.092773	23.775965
679.872253	903.381775	7220.227539	2412.052002	23.883284
680.200562	971.647400	7324.901367	2489.419678	23.889683
680.528809	930.687988	7452.330566	2457.562500	23.412422
680.856995	946.616638	7418.197754	2480.317627	23.699015
681.185120	907.932800	7497.840820	2359.715088	22.030386
681.513306	846.493713	7393.166992	2330.133301	22.662497
681.841309	942.065613	7688.984863	2446.184814	22.293421
682.169373	873.799988	7513.769531	2498.521729	24.468811
682.497314	960.269775	7427.299805	2514.450439	24.032370
682.825134	946.616638	7384.064941	2496.246338	24.072111
683.153076	946.616638	7434.126465	2425.705078	22.799015
683.480896	919.310425	7154.237305	2487.144287	25.145987
683.808655	967.096313	7122.379883	2457.562500	24.214418
684.136414	848.769287	7149.686523	2343.786377	23.726976
684.464050	894.279663	6903.930176	2280.071777	23.059446
684.791626	903.381775	6662.725098	2330.133301	24.772816
685.119263	921.585938	6778.776367	2361.990479	24.592073
685.446838	912.483826	6642.245117	2412.052002	26.171564
685.774292	976.198425	6517.091797	2305.102539	23.983570
686.101685	882.902100	6544.397949	2289.173828	24.839224
686.429077	987.576050	6503.438477	2311.929199	24.009903
686.756348	930.687988	6444.274902	2243.663574	23.813456
687.083679	942.065613	6291.814941	2211.806152	23.734579
687.410950	880.626526	6278.162109	2204.979736	24.536259
687.738159	889.728638	6462.479004	2305.102539	25.398121
688.065308	942.065613	6589.908203	2327.857666	24.536661
688.392395	969.371887	6726.439453	2316.480225	23.399212
688.719421	951.167725	6605.836914	2462.113525	26.720324
689.046448	980.749451	6599.010254	2298.276123	23.450792
689.373413	983.024963	6510.265137	2327.857666	24.330999
689.700317	953.443237	6539.846680	2268.694336	23.543791
690.027100	985.300537	6426.070801	2261.867676	23.462984
690.353943	973.922913	6296.366211	2173.122314	22.530994
690.680725	903.381775	6312.294922	2152.642578	23.096336
691.007446	894.279663	6264.508789	2184.500000	24.025425
691.334106	912.483826	6114.324219	2182.224365	24.409447
691.660645	926.136963	5984.619629	2086.652588	22.941973
691.987244	889.728638	6018.752441	2100.305664	23.602484
692.313721	962.545288	5775.271973	2252.765625	26.808512
692.640259	935.239075	5943.660156	2207.255127	25.397549
692.966675	944.341125	5768.445313	2116.234375	24.292456
693.293030	1026.259888	5759.343262	2150.367188	23.750000
693.619324	901.106262	5652.393555	2136.714111	26.005751
693.945618	898.830688	5634.189453	2148.091553	26.381546
694.271851	930.687988	5761.618652	2061.621826	23.410269
694.598083	928.412476	5615.985352	2063.897461	24.223303
694.924194	930.687988	5609.158691	2057.070801	24.075876
695.250244	1005.780212	5549.995117	2150.367188	25.187782
695.576294	964.820801	5561.373047	2116.234375	25.049505
695.902283	919.310425	5547.719727	2111.683350	25.762047
696.228210	837.391663	5552.270996	2098.030273	26.737453
696.554138	932.963501	5609.158691	2123.060791	25.450119
696.879944	846.493713	5772.996094	2170.846924	26.882221
697.205750	878.351013	5861.741699	2118.509766	24.885841
697.531433	882.902100	5832.159668	2191.326416	26.436779
697.857178	923.861450	5984.619629	2164.020264	24.505396
698.182739	930.687988	6039.232422	2218.632813	25.211580
698.508423	882.902100	6307.743652	2309.653564	26.300333
698.833984	894.279663	6462.479004	2389.296875	26.849205
699.159485	880.626526	6783.327637	2553.134277	28.334618
699.484924	935.239075	7108.727051	2489.419678	25.175083
699.810303	944.341125	7063.216797	2389.296875	23.614729
700.135681	932.963501	6994.951172	2548.583252	26.651649
700.460999	942.065613	7242.982910	2393.847900	23.040808
700.786255	848.769287	6776.500977	2418.878662	26.487526
701.111450	903.381775	6799.256348	2400.674561	25.395599
701.436646	917.034912	6583.081543	2409.776611	26.345383
701.761719	866.973450	6141.630859	2348.337402	28.084555
702.086792	882.902100	5975.517578	2245.938965	26.764969
702.411865	873.799988	5909.527344	2223.183838	26.796204
702.736816	857.871338	5804.853516	2193.602051	27.000919
703.061646	880.626526	5656.944824	2136.714111	26.298239
703.386536	814.636475	5529.515625	2079.825928	26.833975
703.711365	907.932800	5372.504395	2038.866699	25.331295
704.036194	905.657288	5306.514648	1984.254150	24.508791
704.360901	878.351013	5103.993164	1966.049927	25.740442
704.685547	844.218201	5088.064453	1947.845825	26.005365
705.010132	907.932800	5078.962402	2016.111450	26.568468
705.334717	914.759338	5108.544434	2018.386963	26.315790
705.659302	960.269775	4830.930664	1988.805176	26.572605
705.983765	901.106262	5108.544434	1984.254150	25.743647
706.308228	912.483826	4972.013184	1881.855713	23.878923
706.632568	919.310425	4949.257813	1929.641602	25.070581
706.956909	880.626526	4810.451172	1991.080688	28.257090
707.281189	978.473938	4883.267578	1952.396851	24.941725
707.605408	957.994263	4956.084473	1925.090576	24.188955
707.929626	889.728638	4869.614746	1986.529663	27.558603
708.253784	969.371887	4880.992188	2086.652588	28.563118
708.577820	983.024963	4851.410156	1977.427612	25.705885
708.901855	903.381775	4997.043457	1995.631714	26.681492
709.225830	914.759338	4969.737305	1979.703125	26.262629
709.549805	880.626526	4997.043457	1986.529663	26.865671
709.873718	926.136963	4985.666016	1970.601074	25.728701
710.197510	960.269775	4899.196289	1954.672363	25.245523
710.521362	955.718750	5049.380859	2047.968750	26.681488
710.845093	905.657288	5092.615723	1943.294800	24.782606
711.168701	892.004150	5154.054688	1979.703125	25.520554
711.492432	903.381775	5067.584961	2050.244141	27.540979
711.816040	887.453125	5308.790039	2134.438477	28.203808
712.139587	923.861450	5349.749512	1993.356201	24.164522
712.463074	930.687988	5295.136719	2061.621826	25.912409
712.786499	892.004150	5324.718750	2032.040039	25.718683
713.109924	871.524475	5281.483887	2059.346436	26.934988
713.433350	917.034912	5172.258789	2041.142212	26.417114
713.756592	882.902100	5110.819824	2000.182739	26.426262
714.079834	896.555176	5115.370605	2063.897461	27.669907
714.403015	880.626526	4940.155762	2007.009399	27.746635
714.726196	985.300537	4965.186523	2084.376953	27.615776
715.049255	926.136963	5049.380859	1959.223389	25.055185
715.372375	980.749451	4810.451172	2020.662476	27.153893
715.695435	998.953613	4865.063477	1875.029175	22.660389
716.018311	826.014038	4985.666016	1888.682251	25.547047
716.341248	935.239075	4951.533203	1947.845825	25.212465
716.664063	976.198425	4985.666016	2038.866699	26.503973
716.987000	948.892151	4962.910645	1997.907227	26.133789
717.309692	837.391663	5008.421387	1890.957764	25.259138
717.632385	955.718750	4794.522461	1870.478149	23.829283
717.955078	985.300537	4744.460938	1943.294800	25.484261
718.277649	987.576050	4865.063477	1920.539551	24.061033
718.600220	928.412476	4703.501465	1854.549438	24.532852
718.922791	887.453125	4530.562012	1909.161987	28.044971
719.245300	905.657288	4396.306152	1859.100464	27.314211
719.567688	880.626526	4551.041504	1797.661377	24.984501
719.890015	942.065613	4389.479492	1768.079712	23.960400
720.212341	932.963501	4423.612305	1754.426514	23.533247
720.534607	880.626526	4362.173340	1718.018188	24.052288
720.856873	887.453125	4141.447754	1824.967651	28.811188
721.179016	923.861450	4139.172363	1765.804199	26.185421
721.501160	889.728638	4025.396240	1747.599976	27.358492
721.823242	926.136963	4066.355713	1670.232300	23.695652
722.145264	846.493713	4057.253662	1724.844727	27.356483
722.467224	917.034912	4000.365479	1722.569214	26.125460
722.789185	969.371887	4016.294189	1704.365112	24.122480
723.111023	898.830688	3941.202148	1683.885376	25.804037
723.432861	889.728638	4002.641113	1697.538574	25.950293
723.754578	914.759338	4041.324951	1688.436401	24.745268
724.076294	937.514587	3975.334961	1699.814087	25.093634
724.397949	912.483826	3861.558838	1695.262939	26.543209
724.719666	892.004150	4018.569824	1683.885376	25.327509
725.041260	898.830688	3916.171387	1629.272949	24.208145
725.362732	862.422363	4036.773926	1679.334351	25.734768
725.684265	919.310425	4014.018799	1620.170776	22.647055
726.005676	942.065613	4014.018799	1681.609863	24.074074
726.327087	882.902100	4093.661865	1599.691162	22.324593
726.648438	932.963501	3963.957275	1663.405762	24.099102
726.969666	882.902100	3943.477539	1683.885376	26.171003
727.290894	882.902100	4221.091309	1708.916138	24.744375
727.612061	919.310425	4041.324951	1677.058838	24.271135
727.933228	894.279663	4084.559814	1724.844727	26.034235
728.254395	903.381775	4180.131836	1631.548462	22.222223
728.575378	869.248962	4232.468750	1768.079712	26.725306
728.896301	898.830688	4209.713379	1811.314575	27.560139
729.217285	917.034912	4227.917480	1736.222412	24.742270
729.538147	964.820801	4248.397461	1747.599976	23.839224
729.858948	894.279663	4248.397461	1727.120239	24.830393
730.179810	892.004150	4246.121582	1692.987427	23.880598
730.500549	885.177612	4207.437988	1674.783325	23.767124
730.821228	903.381775	4109.590332	1722.569214	25.550037
731.141846	930.687988	4166.478516	1631.548462	21.659637
731.462402	914.759338	4120.968262	1624.721802	22.143362
731.782898	937.514587	4223.366699	1638.375000	21.329639
732.103455	960.269775	4150.549805	1786.283813	25.891584
732.423889	901.106262	4412.234863	1781.732788	25.081009
732.744263	939.790100	4291.632324	1772.630737	24.847250
733.064636	937.514587	4325.765137	1752.151001	24.042980
733.384888	914.759338	4321.213867	1727.120239	23.847694
733.705200	862.422363	4161.927734	1749.875488	26.896551
734.025330	882.902100	4193.784668	1779.457275	27.079039
734.345520	971.647400	4307.561035	1743.048950	23.124147
734.665527	923.861450	4132.345703	1756.702026	25.957445
734.985596	917.034912	4082.284424	1697.538574	24.658520
735.305542	887.453125	4093.661865	1677.058838	24.627396
735.625549	841.942688	4082.284424	1779.457275	28.932583
735.945435	917.034912	4014.018799	1617.895264	22.630417
736.265259	903.381775	3932.099854	1713.467163	26.746807
736.585083	853.320313	3868.385254	1702.089600	28.150946
736.904785	914.759338	3875.211914	1690.711914	26.210606
737.224426	887.453125	3977.610352	1724.844727	27.098673
737.544128	912.483826	3888.864990	1752.151001	28.211010
737.863708	912.483826	3861.558838	1656.579102	25.231482
738.183289	978.473938	3907.069336	1592.864502	20.979017
738.502808	873.799988	3850.181152	1599.691162	24.388382
738.822205	894.279663	3900.242676	1706.640625	27.024982
739.141541	889.728638	3936.650879	1690.711914	26.288273
739.460938	862.422363	3934.375488	1722.569214	28.000000
739.780212	892.004150	4023.120850	1729.395752	26.744184
740.099426	830.565063	4020.845215	1758.977539	29.101282
740.418640	901.106262	3941.202148	1695.262939	26.122751
740.737793	846.493713	3950.304199	1681.609863	26.906157
741.056885	878.351013	3948.028564	1633.823975	24.610825
741.375977	898.830688	3770.538086	1752.151001	29.714737
741.694946	926.136963	3884.313965	1695.262939	25.999998
742.013855	923.861450	3697.721191	1595.140137	24.200167
742.332703	896.555176	3699.996826	1488.190552	21.103895
742.651550	928.412476	3643.108887	1615.619751	25.314333
742.970398	980.749451	3761.435791	1620.170776	22.995090
743.289124	914.759338	3561.189941	1645.201538	27.601032
743.607788	944.341125	3661.312988	1629.272949	25.209381
743.926453	905.657288	3631.731201	1688.436401	28.714521
744.245056	985.300537	3554.363525	1551.905151	22.054913
744.563599	989.851563	3611.251465	1601.966675	23.350697
744.882141	928.412476	3561.189941	1622.446289	26.361280
745.200500	851.044800	3465.618164	1631.548462	29.852049
745.518860	892.004150	3570.292236	1633.823975	27.697536
745.837219	846.493713	3495.199951	1604.242188	28.608248
746.155518	944.341125	3479.271240	1658.854614	28.186712
746.473755	926.136963	3492.924316	1558.731689	24.645390
746.791992	880.626526	3342.739990	1476.812988	24.214418
747.110107	898.830688	3381.423828	1586.037964	27.681026
747.428162	887.453125	3486.097900	1633.823975	28.721542
747.746216	910.208313	3390.525879	1597.415649	27.706425
748.064148	905.657288	3522.506104	1615.619751	27.130434
748.382080	955.718750	3420.107666	1542.803101	23.822716
748.700073	926.136963	3483.822266	1513.221313	22.953737
749.017822	896.555176	3329.086914	1601.966675	28.999067
749.335632	876.075500	3449.689453	1606.517700	28.381964
749.653320	946.616638	3552.087891	1533.701050	22.532753
749.971008	907.932800	3429.209961	1674.783325	30.415163
750.288696	889.728638	3376.872803	1608.793213	28.911255
750.606262	910.208313	3388.250488	1608.793213	28.191000
750.923828	846.493713	3458.791504	1617.895264	29.529617
751.241272	889.728638	3508.853027	1556.456177	25.456121
751.558716	869.248962	3561.189941	1620.170776	27.895182
751.876038	898.830688	3481.546875	1645.201538	28.898678
752.193481	978.473938	3483.822266	1642.926025	26.521345
752.510681	871.524475	3401.903564	1579.211426	27.967625
752.827942	987.576050	3367.770752	1583.762451	25.047798
753.145081	901.106262	3408.730225	1524.598877	24.863880
753.462219	917.034912	3319.984863	1590.588989	28.030300
753.779297	855.595825	3308.607178	1595.140137	30.148428
754.096375	914.759338	3253.994629	1626.997314	30.447470
754.413330	926.136963	3347.291016	1522.323364	24.624060
754.730286	901.106262	3420.107666	1588.313477	27.280937
755.047119	878.351013	3142.494141	1570.109375	30.552767
755.363892	989.851563	3333.637939	1592.864502	25.728153
755.680725	928.412476	3370.046387	1629.272949	28.704569
755.997498	921.585938	3238.066162	1570.109375	27.996071
756.314148	866.973450	3279.025391	1554.180664	28.490564
756.630737	901.106262	3156.147461	1608.793213	31.382439
756.947327	960.269775	3181.177979	1506.394775	24.590166
757.263855	935.239075	3281.301025	1579.211426	27.449076
757.580261	926.136963	3213.035400	1517.772339	25.870646
757.896729	910.208313	3308.607178	1561.007324	27.134727
758.213074	953.443237	3310.882813	1490.466064	22.779921
758.529419	887.453125	3436.036377	1601.966675	28.035715
758.845642	946.616638	3433.760986	1674.783325	29.277220
759.161865	942.065613	3456.516113	1615.619751	26.787331
759.478149	885.177612	3476.995850	1586.037964	27.041260
759.794189	837.391663	3372.321777	1640.650513	31.687613
760.110229	905.657288	3447.414063	1572.384888	26.230974
760.426270	926.136963	3411.005615	1647.477051	29.029305
760.742249	926.136963	3399.628174	1538.252075	24.747009
761.058105	921.585938	3438.312012	1654.303589	29.113922
761.374023	944.341125	3372.321777	1606.517700	27.272728
761.689819	923.861450	3413.281250	1608.793213	27.513710
762.005554	921.585938	3449.689453	1626.997314	27.902788
762.321289	885.177612	3431.485352	1613.344238	28.596962
762.636902	921.585938	3399.628174	1615.619751	28.007343
762.952515	948.892151	3517.955078	1624.721802	26.306465
763.268127	964.820801	3461.067139	1706.640625	29.717413
763.583618	926.136963	3629.455566	1683.885376	28.030304
763.899048	919.310425	4107.314941	1779.457275	26.980730
764.214478	942.065613	4485.051270	1991.080688	29.608225
764.529785	987.576050	4778.593750	1997.907227	26.650660
764.845093	905.657288	4981.115234	1968.325439	26.074818
765.160400	901.106262	4824.104004	2002.458252	28.074245
765.475586	987.576050	4635.235840	1934.192627	25.951340
765.790771	866.973450	4462.296387	1856.824951	27.531643
766.105835	914.759338	4268.876953	1877.304688	28.697424
766.420837	939.790100	3988.988037	1797.661377	28.134325
766.735840	885.177612	3982.161377	1697.538574	26.230713
767.050842	787.330200	3797.844238	1695.262939	30.158728
767.365662	887.453125	3715.925537	1638.375000	26.548672
767.680542	846.493713	3659.037354	1699.814087	30.339809
767.995300	953.443237	3602.149414	1679.334351	27.405499
768.309998	892.004150	3408.730225	1681.609863	31.374321
768.624817	866.973450	3467.893799	1631.548462	29.396324
768.939392	939.790100	3374.597412	1661.130127	29.626163
769.254028	935.239075	3240.341553	1565.558350	27.344522
769.568481	957.994263	3345.015625	1638.375000	28.503336
769.882935	944.341125	3222.137451	1583.762451	28.071926
770.197388	919.310425	3188.004639	1633.823975	31.494482
770.511841	923.861450	3147.045166	1565.558350	28.863873
770.826172	1003.504700	3065.126465	1570.109375	27.483444
771.140442	967.096313	3126.565674	1601.966675	29.399370
771.454651	930.687988	3071.953125	1581.486938	30.393198
771.768860	939.790100	3026.442627	1545.078613	29.007633
772.082886	837.391663	2955.901611	1488.190552	30.719652
772.397034	917.034912	3065.126465	1524.598877	28.283895
772.711060	889.728638	3069.677490	1481.364014	27.139875
773.025024	889.728638	2960.452637	1406.271851	24.945053
773.338928	1030.810913	2969.554688	1483.639526	23.356806
773.652771	864.697876	3044.646729	1565.558350	32.150318
773.966614	926.136963	2980.932129	1508.670288	28.349947
774.280457	910.208313	2933.146240	1440.404663	26.209225
774.594116	914.759338	2894.462402	1444.955688	26.781609
774.907776	853.320313	2953.625977	1438.129150	27.843987
775.221375	880.626526	2853.503174	1417.649414	27.220297
775.534912	910.208313	2817.094727	1524.598877	32.219566
775.848450	898.830688	2899.013428	1561.007324	33.105808
776.161926	882.902100	2855.778564	1454.057739	28.950401
776.475342	860.146851	2823.921387	1531.425537	34.183083
776.788696	905.657288	2807.992676	1467.710938	29.545454
777.101990	892.004150	2817.094727	1372.139038	24.940899
777.415283	901.106262	2848.952148	1392.618774	25.233644
777.728516	887.453125	2805.717041	1410.822876	27.283512
778.041626	835.116150	2705.594238	1444.955688	32.603405
778.354736	910.208313	2844.401123	1324.353149	21.411766
778.667725	864.697876	2714.696289	1447.231201	31.488316
778.980774	935.239075	2764.757813	1369.863525	23.756216
779.293640	823.738525	2785.237549	1374.414551	28.074244
779.606567	930.687988	2694.216553	1408.547363	27.096775
779.919434	951.167725	2755.655762	1413.098389	25.598988
780.232239	948.892151	2607.746826	1474.537476	31.687243
780.544983	907.932800	2698.767578	1419.924927	28.589581
780.857666	937.514587	2771.584229	1406.271851	25.558313
781.170227	866.973450	2712.420898	1426.751587	30.332922
781.482849	912.483826	2680.563477	1440.404663	29.858431
781.795410	976.198425	2687.390137	1435.853638	26.861702
782.107910	903.381775	2719.247314	1331.179688	23.558899
782.420288	921.585938	2666.910400	1465.435425	31.160366
782.732666	826.014038	2591.818115	1376.690063	31.185568
783.044983	876.075500	2639.604248	1413.098389	30.451609
783.357300	889.728638	2564.511963	1458.608887	33.967396
783.669495	905.657288	2528.103516	1338.006226	26.647966
783.981689	901.106262	2496.246338	1381.241089	30.099852
784.293762	841.942688	2443.909424	1301.597900	28.693180
784.605835	960.269775	2512.175049	1367.588013	26.246334
784.917908	957.994263	2562.236328	1374.414551	25.957447
785.229858	955.718750	2425.705078	1372.139038	28.328175
785.541748	930.687988	2503.072998	1317.526489	24.602022
785.853577	905.657288	2487.144287	1356.210449	28.489210
786.165405	860.146851	2478.042236	1376.690063	31.926861
786.477173	921.585938	2430.256104	1276.567139	23.529411
786.788879	967.096313	2448.460449	1335.730713	24.884792
787.100525	930.687988	2418.878662	1290.220337	24.159025
787.412109	928.412476	2398.398926	1360.761475	29.411768
787.723694	885.177612	2384.745850	1390.343262	33.687408
788.035156	923.861450	2387.021240	1310.699951	26.438568
788.346558	964.820801	2530.379150	1353.934937	24.854656
788.658081	1010.331238	2571.338623	1374.414551	23.323614
788.969360	939.790100	2566.787354	1444.955688	31.048950
789.280640	932.963501	2612.297852	1438.129150	30.081303
789.591919	866.973450	2660.083740	1472.261963	33.756344
789.903076	928.412476	2721.522949	1385.792114	25.507610
790.214172	803.258850	2726.073975	1426.751587	32.426037
790.525269	960.269775	2507.624023	1372.139038	26.617645
790.836365	928.412476	2562.236328	1463.159912	32.729809
791.147339	930.687988	2544.032227	1358.485962	26.516224
791.458191	864.697876	2464.388916	1312.975464	28.022760
791.769104	887.453125	2384.745850	1319.802124	28.875381
792.079895	917.034912	2448.460449	1347.108276	28.083204
792.390686	878.351013	2346.062012	1372.139038	33.643410
792.701416	919.310425	2366.541748	1333.455200	28.616350
793.012085	926.136963	2371.092773	1369.863525	30.708660
793.322693	853.320313	2259.592041	1351.659302	35.436893
793.633240	892.004150	2311.929199	1301.597900	28.846153
793.943787	907.932800	2270.969727	1326.628662	30.717867
794.254272	848.769287	2416.603027	1338.006226	31.204643
794.564636	828.289551	2325.582275	1369.863525	36.170212
794.875000	962.545288	2314.204590	1285.669312	23.905729
795.185303	873.799988	2321.031250	1351.659302	33.018864
795.495544	894.279663	2346.062012	1162.791138	18.495298
795.805786	903.381775	2266.418701	1312.975464	30.050081
796.115906	932.963501	2307.378174	1278.842651	25.165560
796.426025	839.667175	2414.327637	1315.250977	30.202309
796.736023	923.861450	2387.021240	1269.740601	23.639193
797.045959	973.922913	2361.990479	1326.628662	25.409840
797.355896	964.820801	2405.225586	1319.802124	24.644552
797.665833	939.790100	2398.398926	1335.730713	27.145084
797.975708	910.208313	2387.021240	1383.516602	32.049305
798.285461	910.208313	2439.358398	1338.006226	27.976187
798.595154	857.871338	2400.674561	1324.353149	30.235989
798.904846	869.248962	2250.489990	1326.628662	33.113678
799.214478	907.932800	2241.387939	1267.465088	26.962460
799.524109	878.351013	2361.990479	1322.077637	29.907984
799.833557	835.116150	2305.102539	1285.669312	30.650160
800.143005	880.626526	2179.948975	1367.588013	37.478107
800.452393	898.830688	2289.173828	1333.455200	31.260233
800.761780	957.994263	2198.153076	1356.210449	32.110096
801.071106	942.065613	2234.561523	1365.312500	32.746479
801.380371	928.412476	2113.958740	1253.812012	27.447224
801.689575	885.177612	2061.621826	1269.740601	32.688587
801.998718	896.555176	2189.051025	1287.944824	30.281694
802.307800	832.840637	2168.571289	1381.241089	41.056213
802.616882	944.341125	2145.816162	1317.526489	31.060598
802.925903	937.514587	2164.020264	1237.883301	24.489796
803.234863	946.616638	2207.255127	1185.546387	18.953075
803.543701	903.381775	2173.122314	1292.495850	30.645166
803.852539	894.279663	2145.816162	1303.873413	32.727272
804.161316	907.932800	2041.142212	1287.944824	33.534138
804.470032	1014.882263	2127.612061	1278.842651	23.721878
804.778809	898.830688	2079.825928	1253.812012	30.057812
805.087341	878.351013	2132.163086	1251.536499	29.764071
805.395935	935.239075	2113.958740	1253.812012	27.027031
805.704468	944.341125	2150.367188	1228.781250	23.584906
806.012939	912.483826	2109.407715	1262.914063	29.277573
806.321350	896.555176	2173.122314	1285.669312	30.481291
806.629761	919.310425	2200.428711	1246.985352	25.577257
806.938049	926.136963	2236.836914	1265.189575	25.868057
807.246277	955.718750	2186.775391	1310.699951	28.835489
807.554504	880.626526	2191.326416	1306.148926	32.465279
807.862671	917.034912	2150.367188	1308.424438	31.734314
808.170715	896.555176	2152.642578	1306.148926	32.608700
808.478821	848.769287	2118.509766	1246.985352	31.362005
808.786804	905.657288	2093.479248	1249.260864	28.927195
809.094727	841.942688	2102.581299	1317.526489	37.725624
809.402649	928.412476	2116.234375	1192.372925	22.222225
809.710510	905.657288	2152.642578	1206.026001	24.087589
810.018311	855.595825	2082.101563	1281.118164	34.693874
810.326050	907.932800	1952.396851	1221.954712	30.065361
810.633667	853.320313	2054.795166	1251.536499	33.143948
810.941345	901.106262	2054.795166	1322.077637	36.489159
811.248901	944.341125	2161.744873	1242.434326	24.485975
811.556396	901.106262	1963.774414	1269.740601	34.689503
811.863892	964.820801	2043.417725	1331.179688	33.966248
812.171326	892.004150	2027.489014	1201.474976	27.254509
812.478699	892.004150	2013.835938	1249.260864	31.845837
812.786011	955.718750	2032.040039	1324.353149	34.249477
813.093262	946.616638	2082.101563	1237.883301	25.651302
813.400391	848.769287	2032.040039	1233.332275	32.500000
813.707642	878.351013	2027.489014	1217.403687	29.504959
814.014709	892.004150	1959.223389	1306.148926	38.805969
814.321716	837.391663	1936.468262	1299.322388	42.028980
814.628723	851.044800	1902.335449	1215.128052	34.632027
814.935669	907.932800	1934.192627	1242.434326	32.594234
815.242554	901.106262	1995.631714	1260.638550	32.848236
815.549438	880.626526	1988.805176	1146.862427	24.024635
815.856201	887.453125	2004.733887	1299.322388	36.863541
816.162964	914.759338	1915.988525	1196.923950	28.181820
816.469604	898.830688	1961.498901	1190.097412	27.408998
816.776184	930.687988	1950.121338	1233.332275	29.687502
817.082825	919.310425	2011.560425	1233.332275	28.749998
817.389343	923.861450	1934.192627	1151.413574	22.522528
817.695801	917.034912	1966.049927	1219.679199	28.850328
818.002197	935.239075	2041.142212	1272.016113	30.452673
818.308533	903.381775	2043.417725	1217.403687	27.544914
818.614868	944.341125	1988.805176	1372.139038	40.958603
818.921143	887.453125	1993.356201	1201.474976	28.395061
819.227356	939.790100	2018.386963	1228.781250	26.793247
819.533447	930.687988	2043.417725	1315.250977	34.560322
819.839539	939.790100	2123.060791	1308.424438	31.153845
820.145569	892.004150	2132.163086	1303.873413	33.211006
820.451538	864.697876	2223.183838	1297.046875	31.825798
820.757568	898.830688	2289.173828	1303.873413	29.132572
821.063416	917.034912	2539.481201	1347.108276	26.507710
821.369263	905.657288	2639.604248	1408.547363	29.002621
821.675049	871.524475	2735.176025	1531.425537	35.409035
821.980713	907.932800	2919.493164	1565.558350	32.692310
822.286438	960.269775	3219.861816	1622.446289	29.305136
822.592102	860.146851	4105.039551	1920.539551	32.678822
822.897583	894.279663	6223.549316	2550.858887	31.084545
823.203125	894.279663	8628.774414	3326.811523	31.450428
823.508545	951.167725	10360.446289	3686.343750	29.068924
823.813965	921.585938	10524.284180	4036.773926	32.440758
824.119263	935.239075	9548.084961	3522.506104	30.039631
824.424622	864.697876	8175.946289	3128.841064	30.967939
824.729858	951.167725	6922.134277	2776.135498	30.564024
825.035095	998.953613	5955.038086	2541.756836	31.129478
825.340149	810.085388	5340.647461	2327.857666	33.500748
825.645264	907.932800	4760.389648	2177.673340	32.959240
825.950256	957.994263	4268.876953	1959.223389	30.240549
826.255310	869.248962	4009.467773	1959.223389	34.710140
826.560242	885.177612	3968.508301	1886.406738	32.472324
826.865112	885.177612	3765.986816	1743.048950	29.778833
827.169922	860.146851	3588.496338	1706.640625	31.025854
827.474670	880.626526	3718.200928	1729.395752	29.911787
827.779419	960.269775	4145.999023	1961.498901	31.428570
828.084045	928.412476	4805.899902	2057.070801	29.107983
828.388672	912.483826	5169.983398	2175.397949	29.663282
828.693176	926.136963	4949.257813	2189.051025	31.391403
828.997681	942.065613	4512.357910	1966.049927	28.680687
829.302124	841.942688	3952.579590	1868.202637	32.991959
829.606567	930.687988	3474.720215	1690.711914	29.874775
829.910828	951.167725	3206.208740	1629.272949	30.070639
830.215149	951.167725	2908.115479	1570.109375	31.627909
830.519348	892.004150	2769.308838	1490.466064	31.878784
830.823547	932.963501	2662.359375	1481.364014	31.710526
831.127686	937.514587	2537.205811	1422.200562	30.298721
831.431763	830.565063	2409.776611	1388.067749	35.302597
831.735779	919.310425	2332.408936	1356.210449	30.917875
832.039734	912.483826	2293.724854	1256.087524	24.876448
832.343628	855.595825	2207.255127	1333.455200	35.353539
832.647461	819.187500	2102.581299	1308.424438	38.120564
832.951233	880.626526	2107.132324	1272.016113	31.910944
833.255127	873.799988	2150.367188	1285.669312	32.263821
833.558777	921.585938	2134.438477	1388.067749	38.461544
833.862366	921.585938	2305.102539	1292.495850	26.809214
834.165955	951.167725	2596.369141	1374.414551	25.726141
834.469482	885.177612	3094.708252	1567.833862	30.895983
834.773010	912.483826	3376.872803	1756.702026	34.256695
835.076416	901.106262	3522.506104	1740.773438	32.031250
835.379822	914.759338	3536.159424	1736.222412	31.336805
835.683105	923.861450	3206.208740	1679.334351	33.100700
835.986389	917.034912	2996.860840	1542.803101	30.087526
836.289612	917.034912	2676.012451	1388.067749	26.778786
836.592773	896.555176	2496.246338	1506.394775	38.122334
836.895874	996.678101	2439.358398	1467.710938	32.649841
837.198914	937.514587	2407.500977	1358.485962	28.637775
837.501892	937.514587	2284.622803	1340.281738	29.898649
837.804871	901.106262	2120.785400	1360.761475	37.686565
838.107666	855.595825	1997.907227	1303.873413	39.243027
838.410583	835.116150	1870.478149	1242.434326	39.340652
838.713379	910.208313	1920.539551	1203.750488	29.054052
839.016052	960.269775	1895.508789	1219.679199	27.737232
839.318787	848.769287	1813.590088	1212.852539	37.735844
839.621338	964.820801	1772.630737	1155.964600	23.661976
839.923889	866.973450	1777.181763	1133.209351	29.249996
840.226440	912.483826	1729.395752	1201.474976	35.376049
840.528931	946.616638	1900.059814	1178.719727	24.343674
840.831299	946.616638	2043.417725	1228.781250	25.726145
841.133606	873.799988	1956.947876	1240.158813	33.823524
841.435913	942.065613	1984.254150	1208.301514	25.545849
841.738220	955.718750	1966.049927	1253.812012	29.504509
842.040405	901.106262	1852.273926	1297.046875	41.626797
842.342529	853.320313	1820.416626	1174.168701	33.176468
842.644592	898.830688	1729.395752	1119.556274	26.575352
842.946594	880.626526	1690.711914	1126.382813	30.337084
843.248596	942.065613	1636.099487	1085.423462	20.655743
843.550598	962.545288	1697.538574	1144.586914	24.767794
843.852478	826.014038	1638.375000	1146.862427	39.495792
844.154236	828.289551	1588.313477	1183.270874	46.706600
844.455994	887.453125	1572.384888	1008.055725	17.607973
844.757690	907.932800	1499.568237	1058.117188	25.384617
845.059326	921.585938	1508.670288	1058.117188	23.255816
845.360962	896.555176	1608.793213	1003.504700	15.015981
845.662476	846.493713	1517.772339	1101.352051	37.966103
845.963989	855.595825	1465.435425	1119.556274	43.283585
846.265381	853.320313	1469.986450	1064.943726	34.317341
846.566772	905.657288	1413.098389	1133.209351	44.843048
846.868042	935.239075	1463.159912	1094.525513	30.172409
847.169373	864.697876	1408.547363	1112.729614	45.606689
847.470581	871.524475	1456.333252	1137.760376	45.525291
847.771729	948.892151	1408.547363	1162.791138	46.534660
848.072815	985.300537	1433.578125	1112.729614	28.426376
848.373901	903.381775	1422.200562	1083.147949	34.649124
848.674866	928.412476	1365.312500	1089.974487	36.979172
848.975891	869.248962	1351.659302	1074.045776	42.452824
849.276794	944.341125	1333.455200	1069.494751	32.163738
849.577637	871.524475	1317.526489	1069.494751	44.387753
849.878357	944.341125	1415.373901	1105.903076	34.299515
850.179077	889.728638	1367.588013	1124.107300	49.047623
850.479736	912.483826	1431.302612	1019.433350	20.614042
850.780396	889.728638	1376.690063	1039.912964	30.841114
851.080994	848.769287	1319.802124	985.300537	28.985506
851.381470	837.391663	1333.455200	1133.209351	59.633022
851.681946	880.626526	1424.476074	1053.566162	31.799170
851.982361	948.892151	1369.863525	1078.596802	30.810801
852.282715	903.381775	1369.863525	1044.463989	30.243887
852.583008	969.371887	1447.231201	1076.321289	22.380939
852.883240	992.127075	1328.904175	996.678101	1.351346
853.183411	907.932800	1392.618774	1053.566162	30.046951
853.483521	985.300537	1401.720825	1030.810913	10.928952
853.783630	866.973450	1433.578125	1062.668213	34.538147
854.083679	903.381775	1349.383789	1008.055725	23.469389
854.383667	942.065613	1419.924927	1008.055725	13.809527
854.683533	821.463013	1283.393677	1096.801025	59.605919
854.983337	903.381775	1358.485962	1042.188477	30.499983
855.283203	937.514587	1347.108276	1069.494751	32.222218
855.582886	917.034912	1328.904175	1019.433350	24.861879
855.882629	914.759338	1269.740601	973.922913	16.666676
856.182312	923.861450	1228.781250	978.473938	17.910442
856.481873	935.239075	1365.312500	1012.606750	17.989410
856.781372	894.279663	1431.302612	944.341125	9.322034
857.080872	901.106262	1497.292725	1021.708862	20.229008
857.380310	871.524475	1367.588013	1085.423462	43.119270
857.679688	967.096313	1344.832764	1060.392700	24.698805
857.979004	892.004150	1340.281738	1042.188477	33.502529
858.278259	942.065613	1335.730713	962.545288	5.202309
858.577454	917.034912	1392.618774	998.953613	17.224871
858.876648	846.493713	1374.414551	1115.005249	50.862083
859.175720	894.279663	1360.761475	1064.943726	36.585361
859.474792	942.065613	1328.904175	998.953613	14.705876
859.773743	887.453125	1292.495850	1060.392700	42.696625
860.072693	844.218201	1281.118164	1064.943726	50.520840
860.371521	946.616638	1349.383789	1046.739624	24.858776
860.670349	864.697876	1328.904175	1058.117188	41.666672
860.969116	948.892151	1292.495850	1021.708862	21.192062
861.267883	942.065613	1310.699951	1012.606750	19.135801
861.566589	889.728638	1340.281738	1044.463989	34.343422
861.865112	844.218201	1322.077637	1089.974487	51.428574
862.163635	921.585938	1287.944824	1030.810913	29.813656
862.462158	887.453125	1335.730713	1017.157776	28.934004
862.760620	880.626526	1335.730713	969.371887	19.500010
863.059021	946.616638	1274.291626	962.545288	4.861113
863.357361	864.697876	1281.118164	980.749451	27.868856
863.655640	935.239075	1278.842651	1019.433350	24.503317
863.953857	912.483826	1242.434326	1071.770264	48.275860
864.251953	930.687988	1333.455200	1023.984375	23.163849
864.550110	928.412476	1331.179688	998.953613	17.514122
864.848206	930.687988	1315.250977	992.127075	15.976339
865.146179	1023.984375	1265.189575	1049.015137	10.377373
865.444092	948.892151	1372.139038	1099.076538	35.483871
865.741943	946.616638	1351.659302	1051.290649	25.842712
866.039795	962.545288	1306.148926	1042.188477	23.178797
866.337646	885.177612	1324.353149	1080.872437	44.559589
866.635376	919.310425	1344.832764	1033.086426	26.737963
866.933044	948.892151	1285.669312	1069.494751	35.810802
867.230652	880.626526	1328.904175	980.749451	22.335026
867.528198	878.351013	1249.260864	1039.912964	43.558281
867.825745	914.759338	1233.332275	987.576050	22.857155
868.123230	830.565063	1333.455200	1060.392700	45.701363
868.420593	964.820801	1376.690063	1017.157776	12.707182
868.717896	969.371887	1324.353149	976.198425	1.923070
869.015198	962.545288	1333.455200	1010.331238	12.883438
869.312439	869.248962	1340.281738	1039.912964	36.231873
869.609619	866.973450	1303.873413	992.127075	28.645830
869.906738	939.790100	1281.118164	1078.596802	40.666653
870.203796	903.381775	1378.965576	1058.117188	32.535889
870.500854	853.320313	1260.638550	969.371887	28.491623
870.797791	919.310425	1192.372925	1019.433350	36.666668
871.094666	957.994263	1226.505737	1064.943726	39.830502
871.391602	921.585938	1319.802124	1042.188477	30.285694
871.688293	914.759338	1297.046875	985.300537	18.452393
871.985107	973.922913	1315.250977	1092.250000	34.666676
872.281738	889.728638	1342.557251	1060.392700	37.688446
872.578369	912.483826	1331.179688	1076.321289	39.130424
872.874939	912.483826	1347.108276	1049.015137	31.413630
873.171509	932.963501	1262.914063	987.576050	16.551737
873.467957	967.096313	1262.914063	992.127075	8.461548
873.764343	942.065613	1335.730713	1076.321289	34.104034
874.060669	939.790100	1303.873413	985.300537	12.500007
874.356995	939.790100	1274.291626	939.790100	0.000000
874.653198	944.341125	1274.291626	985.300537	12.413805
874.949463	1005.780212	1390.343262	1008.055725	0.591714
875.245544	905.657288	1374.414551	1078.596802	36.893192
875.541626	1012.606750	1335.730713	1012.606750	0.000000
875.837646	951.167725	1344.832764	1039.912964	22.543337
876.133606	946.616638	1240.158813	1019.433350	24.806217
876.429565	923.861450	1308.424438	1021.708862	25.443794
876.725403	923.861450	1344.832764	1055.841675	31.351358
877.021179	907.932800	1299.322388	978.473938	18.023254
877.316956	880.626526	1347.108276	1023.984375	30.731716
877.612610	937.514587	1244.709839	1026.259888	28.888891
877.908203	866.973450	1308.424438	1085.423462	49.484547
878.203857	907.932800	1308.424438	1012.606750	26.136364
878.499390	844.218201	1258.363037	1033.086426	45.604389
878.794800	882.902100	1385.792114	1039.912964	31.221710
879.090271	841.942688	1403.996338	992.127075	26.720650
879.385559	878.351013	1256.087524	1049.015137	45.180733
879.680847	835.116150	1326.628662	1099.076538	53.703697
879.976196	951.167725	1388.067749	1019.433350	15.624999
880.271301	946.616638	1522.323364	1028.535400	14.229252
880.566467	917.034912	1508.670288	1233.332275	53.461536
880.861572	855.595825	1656.579102	1130.933838	34.375000
881.156555	967.096313	1708.916138	1178.719727	28.527603
881.451477	910.208313	2088.927979	1353.934937	37.644794
881.746460	942.065613	2607.746826	1495.017212	33.196724
882.041321	923.861450	3365.495361	1754.426514	34.016773
882.336121	901.106262	4182.407227	1979.703125	32.871014
882.630798	960.269775	4598.827637	2045.693237	29.831144
882.925537	896.555176	4500.979980	2047.968750	31.944447
883.220215	939.790100	4353.071289	2063.897461	32.933338
883.514771	910.208313	4029.947266	1904.610962	31.874546
883.809326	978.473938	3784.191162	1774.906250	28.386049
884.103760	871.524475	3490.648926	1720.293701	32.406601
884.398132	903.381775	3147.045166	1604.242188	31.237326
884.692505	946.616638	3003.687500	1499.568237	26.880533
884.986816	898.830688	2767.033203	1535.976563	34.104755
885.281067	912.483826	2514.450439	1433.578125	32.528412
885.575256	887.453125	2405.225586	1310.699951	27.886053
885.869385	810.085388	2230.010498	1269.740601	32.371796
886.163452	946.616638	2038.866699	1294.771362	31.875004
886.457458	871.524475	1991.080688	1260.638550	34.756104
886.751465	901.106262	1804.488037	1210.577026	34.256920
887.045410	935.239075	1704.365112	1219.679199	36.982250
887.339233	932.963501	1674.783325	1171.893188	32.208588
887.632996	964.820801	1588.313477	1078.596802	18.248169
887.926758	960.269775	1533.701050	1044.463989	14.682529
888.220398	953.443237	1520.047852	1058.117188	18.473896
888.514099	887.453125	1488.190552	1140.035889	42.045452
888.807678	880.626526	1481.364014	1067.219238	31.060608
889.101196	914.759338	1363.036987	1049.015137	29.949251
889.394653	882.902100	1403.996338	1062.668213	34.497814
889.688049	855.595825	1333.455200	1035.361938	37.619041
889.981384	1019.433350	1306.148926	1035.361938	5.555537
890.274719	876.075500	1356.210449	1042.188477	34.597145
890.567932	826.014038	1260.638550	1001.229126	40.314129
>>>>>End Processed Spectral Data<<<<<
