Jaz Data File
++++++++++++++++++++++++++++++++++++
Date: Wed Feb 07 06:55:30 2024
User: jaz
Dark Spectrum Present: Yes
Reference Spectrum Present: Yes
Processed Spectrum Present: Yes
Spectrometers: JAZA3692
Integration Time (usec): 43800 (JAZA3692)
Spectra Averaged: 1 (JAZA3692)
Boxcar Smoothing: 0 (JAZA3692)
Correct for Electrical Dark: No (JAZA3692)
Strobe/Lamp Enabled: Yes (JAZA3692)
Correct for Detector Non-linearity: No (JAZA3692)
Correct for Stray Light: No (JAZA3692)
Number of Pixels in Processed Spectrum: 2048
>>>>>Begin Processed Spectral Data<<<<<
W	D	R	S	P
190.244385	0.000000	0.000000	0.000000	0.000000
190.627136	0.000000	0.000000	0.000000	0.000000
191.009842	892.004150	873.799988	869.248962	124.999916
191.392532	855.595825	892.004150	880.626526	68.749939
191.775177	960.269775	844.218201	919.310425	35.294094
192.157791	967.096313	969.371887	857.871338	-4799.887207
192.540390	892.004150	894.279663	882.902100	-400.000000
192.922943	939.790100	935.239075	887.453125	1150.004028
193.305481	980.749451	928.412476	955.718750	47.826035
193.687958	917.034912	937.514587	976.198425	288.888916
194.070419	967.096313	905.657288	946.616638	33.333332
194.452866	948.892151	935.239075	857.871338	666.668884
194.835251	932.963501	985.300537	905.657288	-52.173786
195.217621	917.034912	907.932800	946.616638	-324.998505
195.599960	962.545288	939.790100	903.381775	260.000122
195.982254	932.963501	944.341125	887.453125	-399.998932
196.364517	973.922913	955.718750	898.830688	412.500305
196.746750	967.096313	976.198425	939.790100	-299.998657
197.128952	967.096313	892.004150	923.861450	57.575733
197.511139	864.697876	919.310425	853.320313	-20.833241
197.893280	962.545288	889.728638	869.248962	128.124985
198.275391	953.443237	907.932800	905.657288	104.999977
198.657471	903.381775	937.514587	910.208313	19.999928
199.039520	948.892151	935.239075	878.351013	516.668457
199.421539	917.034912	998.953613	905.657288	-13.888922
199.803513	951.167725	973.922913	855.595825	-420.000488
200.185471	953.443237	983.024963	923.861450	-100.000206
200.567383	967.096313	985.300537	903.381775	-349.998657
200.949265	951.167725	1010.331238	894.279663	-96.153961
201.331131	898.830688	964.820801	914.759338	24.137934
201.712967	923.861450	898.830688	951.167725	-109.090866
202.094742	903.381775	942.065613	903.381775	0.000000
202.476517	944.341125	887.453125	964.820801	-35.999992
202.858231	976.198425	973.922913	873.799988	4500.016113
203.239944	1044.463989	903.381775	896.555176	104.838737
203.621582	937.514587	1030.810913	887.453125	-53.658558
204.003235	953.443237	955.718750	823.738525	-5700.021484
204.384827	951.167725	932.963501	889.728638	337.499084
204.766388	969.371887	903.381775	878.351013	137.931076
205.147934	873.799988	901.106262	944.341125	258.333069
205.529449	923.861450	910.208313	862.422363	449.999786
205.910904	910.208313	955.718750	873.799988	-79.999947
206.292343	903.381775	978.473938	876.075500	-36.363682
206.673767	885.177612	907.932800	942.065613	250.000137
207.055115	871.524475	985.300537	894.279663	19.999979
207.436462	948.892151	896.555176	928.412476	39.130413
207.817780	955.718750	917.034912	987.576050	-82.352997
208.199051	853.320313	910.208313	962.545288	192.000031
208.580307	832.840637	976.198425	921.585938	61.904762
208.961517	903.381775	957.994263	857.871338	-83.333389
209.342712	905.657288	905.657288	905.657288	0.000000
209.723846	955.718750	969.371887	912.483826	-316.666595
210.104965	969.371887	957.994263	928.412476	359.999664
210.486069	914.759338	946.616638	853.320313	-192.856979
210.867111	912.483826	962.545288	898.830688	-27.272749
211.248123	905.657288	885.177612	853.320313	255.555695
211.629120	926.136963	917.034912	848.769287	850.002686
212.010071	873.799988	971.647400	896.555176	23.255789
212.390991	857.871338	946.616638	903.381775	51.282082
212.771881	946.616638	937.514587	892.004150	600.002014
213.152756	876.075500	973.922913	821.463013	-55.813931
213.533569	864.697876	930.687988	839.667175	-37.930988
213.914368	876.075500	951.167725	889.728638	18.181826
214.295135	903.381775	896.555176	873.799988	433.331238
214.675858	923.861450	967.096313	860.146851	-147.368576
215.056549	866.973450	901.106262	955.718750	259.999969
215.437225	832.840637	907.932800	857.871338	33.333305
215.817841	910.208313	932.963501	919.310425	40.000160
216.198441	973.922913	855.595825	921.585938	44.230762
216.579025	880.626526	932.963501	912.483826	60.869587
216.959549	942.065613	878.351013	917.034912	39.285660
217.340057	932.963501	1003.504700	914.759338	-25.806427
217.720535	889.728638	860.146851	923.861450	-115.384552
218.100967	953.443237	923.861450	892.004150	207.692276
218.481369	939.790100	948.892151	894.279663	-500.002014
218.861740	910.208313	939.790100	860.146851	-169.230682
219.242065	912.483826	944.341125	887.453125	-78.571320
219.622391	869.248962	935.239075	896.555176	41.379250
220.002670	896.555176	896.555176	910.208313	0.000000
220.382919	926.136963	928.412476	887.453125	-1700.005371
220.763123	944.341125	937.514587	894.279663	733.335999
221.143295	873.799988	973.922913	910.208313	36.363625
221.523453	921.585938	928.412476	983.024963	900.002686
221.903549	848.769287	942.065613	978.473938	139.024399
222.283630	892.004150	926.136963	885.177612	-19.999928
222.663696	932.963501	1001.229126	869.248962	-93.333267
223.043701	980.749451	939.790100	882.902100	238.888916
223.423676	862.422363	930.687988	937.514587	110.000053
223.803635	944.341125	946.616638	957.994263	600.002686
224.183548	980.749451	955.718750	912.483826	272.727570
224.563431	935.239075	1012.606750	948.892151	17.647003
224.943283	946.616638	987.576050	951.167725	11.111211
225.323105	951.167725	960.269775	932.963501	-200.001343
225.702881	901.106262	898.830688	926.136963	-1099.973145
226.082642	853.320313	903.381775	935.239075	163.636368
226.462357	905.657288	1046.739624	866.973450	-27.419334
226.842041	907.932800	1055.841675	889.728638	-12.307688
227.221695	857.871338	980.749451	901.106262	35.185211
227.601318	935.239075	978.473938	905.657288	-68.421143
227.980911	921.585938	1028.535400	903.381775	-17.021275
228.360474	917.034912	939.790100	898.830688	-80.000320
228.739990	905.657288	957.994263	930.687988	47.826035
229.119476	946.616638	1042.188477	971.647400	26.190519
229.498932	971.647400	1119.556274	898.830688	-49.230793
229.878372	871.524475	1171.893188	932.963501	20.454536
230.257736	928.412476	1171.893188	907.932800	-8.411210
230.637115	855.595825	1112.729614	971.647400	45.132759
231.016449	946.616638	1158.240112	796.432251	-70.967735
231.395737	853.320313	1115.005249	932.963501	30.434763
231.774994	912.483826	1083.147949	901.106262	-6.666640
232.154221	921.585938	1183.270874	967.096313	17.391287
232.533417	894.279663	1051.290649	910.208313	10.144927
232.912582	926.136963	1037.637451	887.453125	-34.693874
233.291702	821.463013	1030.810913	923.861450	48.913048
233.670792	910.208313	1049.015137	871.524475	-27.868830
234.049866	926.136963	1058.117188	876.075500	-37.931034
234.428894	853.320313	1074.045776	903.381775	22.680420
234.807892	932.963501	1089.974487	946.616638	8.695657
235.186874	880.626526	1135.484863	887.453125	2.678586
235.565781	989.851563	1046.739624	926.136963	-111.999947
235.944687	957.994263	1103.627563	889.728638	-46.875011
236.323547	917.034912	1105.903076	917.034912	0.000000
236.702377	960.269775	1039.912964	862.422363	-122.857224
237.081177	873.799988	1101.352051	864.697876	-4.000013
237.459946	869.248962	1178.719727	898.830688	9.558811
237.838669	969.371887	1149.138062	964.820801	-2.531670
238.217361	955.718750	1140.035889	978.473938	12.345672
238.596039	953.443237	1083.147949	855.595825	-75.438599
238.974670	937.514587	1133.209351	930.687988	-3.488391
239.353271	901.106262	1126.382813	923.861450	10.101002
239.731842	930.687988	1169.617676	932.963501	0.952378
240.110367	901.106262	1158.240112	889.728638	-4.424787
240.488876	871.524475	1167.342163	876.075500	1.538456
240.867340	896.555176	1235.607788	926.136963	8.724836
241.245789	894.279663	1119.556274	923.861450	13.131317
241.624176	910.208313	1233.332275	944.341125	10.563380
242.002548	955.718750	1319.802124	896.555176	-16.250008
242.380890	882.902100	1308.424438	964.820801	19.251328
242.759186	907.932800	1454.057739	876.075500	-5.833335
243.137451	894.279663	1481.364014	983.024963	15.116278
243.515686	917.034912	1556.456177	987.576050	11.032029
243.893890	885.177612	1658.854614	898.830688	1.764700
244.272049	948.892151	1479.088501	957.994263	1.716744
244.650192	926.136963	1567.833862	960.269775	5.319149
245.028290	844.218201	1415.373901	885.177612	7.171321
245.406357	901.106262	1369.863525	1028.535400	27.184462
245.784393	907.932800	1372.139038	939.790100	6.862747
246.162384	928.412476	1365.312500	919.310425	-2.083326
246.540359	919.310425	1454.057739	917.034912	-0.425530
246.918289	901.106262	1636.099487	1083.147949	24.767805
247.296204	894.279663	1656.579102	985.300537	11.940305
247.674057	926.136963	1952.396851	1028.535400	9.977827
248.051895	844.218201	2207.255127	985.300537	10.350589
248.429703	914.759338	2129.887451	987.576050	5.992513
248.807465	942.065613	2079.825928	1042.188477	8.799996
249.185196	835.116150	2002.458252	935.239075	8.577000
249.562897	917.034912	1781.732788	1046.739624	15.000004
249.940567	921.585938	1695.262939	1019.433350	12.647062
250.318192	919.310425	1595.140137	1001.229126	12.121204
250.695801	901.106262	1567.833862	987.576050	12.969283
251.073349	885.177612	1522.323364	971.647400	13.571429
251.450882	937.514587	1495.017212	914.759338	-4.081640
251.828400	937.514587	1469.986450	998.953613	11.538455
252.205872	935.239075	1510.945801	1010.331238	13.043475
252.583313	907.932800	1599.691162	1039.912964	19.078939
252.960693	896.555176	1590.588989	1028.535400	19.016397
253.338074	812.360901	1604.242188	1008.055725	24.712646
253.715408	848.769287	1677.058838	1058.117188	25.274725
254.092682	944.341125	1615.619751	987.576050	6.440682
254.469955	903.381775	1504.119263	973.922913	11.742423
254.847198	848.769287	1456.333252	1026.259888	29.213484
255.224365	887.453125	1449.506714	935.239075	8.502028
255.601563	869.248962	1415.373901	935.239075	12.083336
255.978683	960.269775	1424.476074	1008.055725	10.294119
256.355743	814.636475	1458.608887	967.096313	23.674902
256.732819	962.545288	1410.822876	962.545288	0.000000
257.109894	951.167725	1454.057739	919.310425	-6.334845
257.486877	914.759338	1451.782227	955.718750	7.627126
257.863831	930.687988	1583.762451	1003.504700	11.149833
258.240753	901.106262	1670.232300	1060.392700	20.710056
258.617645	898.830688	1663.405762	1035.361938	17.857141
258.994507	914.759338	1795.385864	1037.637451	13.953487
259.371307	923.861450	1947.845825	1078.596802	15.111105
259.748108	1019.433350	1929.641602	989.851563	-3.250002
260.124878	896.555176	2145.816162	1046.739624	12.021863
260.501617	946.616638	2327.857666	1110.454102	11.861613
260.878296	912.483826	2685.114502	1130.933838	12.323493
261.254944	887.453125	2778.410889	1112.729614	11.913354
261.631561	912.483826	2569.062988	1178.719727	16.071426
262.008179	914.759338	2264.143311	1087.698975	12.816191
262.384735	907.932800	2154.918213	1008.055725	8.029198
262.761261	937.514587	1997.907227	1115.005249	16.738203
263.137695	901.106262	1881.855713	928.412476	2.784219
263.514191	855.595825	1815.865601	1037.637451	18.957342
263.890594	912.483826	1745.324463	976.198425	7.650275
264.267029	962.545288	1795.385864	1083.147949	14.480882
264.643341	880.626526	1672.507813	1085.423462	25.862076
265.019653	885.177612	1758.977539	1012.606750	14.583331
265.395935	857.871338	1763.528564	983.024963	13.819095
265.772217	935.239075	1740.773438	1049.015137	14.124296
266.148407	917.034912	1779.457275	1021.708862	12.137202
266.524597	928.412476	1818.141113	962.545288	3.836317
266.900726	928.412476	1849.998413	1035.361938	11.604937
267.276855	896.555176	1929.641602	1008.055725	10.792954
267.652924	944.341125	1991.080688	1067.219238	11.739130
268.028992	976.198425	2027.489014	989.851563	1.298703
268.404999	1003.504700	2032.040039	1023.984375	1.991149
268.781006	914.759338	2034.315552	1053.566162	12.398379
269.156921	919.310425	2011.560425	1005.780212	7.916667
269.532837	928.412476	2000.182739	1044.463989	10.828021
269.908661	921.585938	1991.080688	985.300537	5.957448
270.284546	923.861450	2009.284912	989.851563	6.079665
270.660339	919.310425	2050.244141	1012.606750	8.249496
271.036133	905.657288	2068.448486	1044.463989	11.937370
271.411835	892.004150	2063.897461	1005.780212	9.708739
271.787537	869.248962	2266.418701	1039.912964	12.214980
272.163239	894.279663	2571.338623	1130.933838	14.111261
272.538849	960.269775	2598.644775	1121.831787	9.861114
272.914459	960.269775	2453.011475	1085.423462	8.384149
273.290070	905.657288	2430.256104	1055.841675	9.850748
273.665588	866.973450	2387.021240	1096.801025	15.119760
274.041046	932.963501	2323.306641	1023.984375	6.546648
274.416565	889.728638	2325.582275	1076.321289	12.995242
274.791962	951.167725	2216.357178	1042.188477	7.194239
275.167389	889.728638	2264.143311	1005.780212	8.443709
275.542755	928.412476	2136.714111	992.127075	5.273071
275.918060	971.647400	2179.948975	1049.015137	6.403016
276.293365	939.790100	2179.948975	1028.535400	7.155962
276.668640	917.034912	2220.908203	1033.086426	8.900521
277.043854	942.065613	2341.510986	1078.596802	9.756093
277.419037	944.341125	2323.306641	985.300537	2.970300
277.794189	914.759338	2291.449463	1017.157776	7.438016
278.169312	860.146851	2330.133301	1005.780212	9.907123
278.544373	910.208313	2261.867676	1037.637451	9.427607
278.919464	892.004150	2236.836914	1062.668213	12.690356
279.294464	896.555176	2318.755615	1023.984375	8.960003
279.669464	862.422363	2236.836914	1049.015137	13.576164
280.044403	889.728638	2239.112549	1089.974487	14.839798
280.419312	926.136963	2302.827148	1078.596802	11.074375
280.794189	896.555176	2380.194824	1023.984375	8.588959
281.169037	896.555176	2366.541748	1110.454102	14.551081
281.543854	953.443237	2566.787354	1078.596802	7.757401
281.918671	885.177612	2603.195801	1128.658325	14.172185
282.293365	951.167725	2701.043213	1112.729614	9.232765
282.668091	980.749451	2746.553711	1121.831787	7.989693
283.042786	917.034912	2960.452637	1128.658325	10.356346
283.417419	857.871338	2892.187012	1165.066650	15.100671
283.792053	889.728638	2842.125488	1119.556274	11.771564
284.166595	905.657288	2682.839111	1115.005249	11.779771
284.541138	919.310425	2664.634766	1108.178589	10.821379
284.915619	919.310425	2594.093750	1080.872437	9.646741
285.290100	898.830688	2687.390137	1126.382813	12.722648
285.664520	880.626526	2776.135498	1160.515625	14.765907
286.038940	805.534363	2862.605225	1089.974487	13.827435
286.413300	876.075500	2846.676514	1124.107300	12.586606
286.787628	887.453125	2935.421875	1165.066650	13.555554
287.161896	889.728638	3147.045166	1274.291626	17.036291
287.536194	835.116150	3108.361328	1210.577026	16.516516
287.910400	901.106262	3005.962891	1185.546387	13.513515
288.284607	869.248962	2869.431641	1199.199463	16.496019
288.658752	921.585938	2812.543701	1228.781250	16.245487
289.032867	951.167725	2662.359375	1130.933838	10.505318
289.406921	946.616638	2851.227539	1242.434326	15.531660
289.781006	957.994263	2778.410889	1199.199463	13.250000
290.154999	889.728638	2792.063965	1246.985352	18.779902
290.529022	898.830688	2883.084961	1274.291626	18.922018
290.902954	928.412476	3165.249512	1326.628662	17.802647
291.276825	930.687988	3192.555664	1331.179688	17.706240
291.650757	930.687988	3044.646729	1338.006226	19.268032
292.024597	928.412476	3081.055176	1253.812012	15.116282
292.398407	885.177612	3071.953125	1363.036987	21.852238
292.772156	889.728638	2912.666504	1365.312500	23.509563
293.145905	871.524475	2807.992676	1303.873413	22.326674
293.519592	821.463013	2726.073975	1328.904175	26.642773
293.893280	871.524475	2924.044189	1310.699951	21.396894
294.266907	878.351013	2880.809326	1328.904175	22.500002
294.640533	857.871338	2994.585449	1365.312500	23.748669
295.014069	928.412476	3210.759766	1426.751587	21.834501
295.387604	860.146851	3283.576416	1390.343262	21.877937
295.761078	932.963501	3345.015625	1476.812988	22.547169
296.134552	903.381775	3363.219727	1431.302612	21.461611
296.507996	869.248962	3360.944336	1385.792114	20.730591
296.881378	921.585938	3504.302002	1451.782227	20.528633
297.254730	903.381775	3549.812500	1563.282837	24.935513
297.628021	894.279663	3863.834229	1586.037964	23.295017
298.001282	942.065613	3868.385254	1586.037964	22.006222
298.374573	942.065613	3813.772949	1545.078613	20.998415
298.747803	939.790100	3745.507324	1499.568237	19.951338
299.121002	880.626526	3581.669678	1433.578125	20.471779
299.494141	967.096313	3335.913574	1388.067749	17.771376
299.867188	928.412476	3281.301025	1365.312500	18.568665
300.240265	942.065613	3304.056152	1419.924927	20.231213
300.613312	894.279663	3092.432861	1378.965576	22.049686
300.986328	937.514587	3124.290039	1394.894287	20.915714
301.359314	910.208313	3249.443604	1467.710938	23.832685
301.732239	887.453125	3115.187988	1372.139038	21.756893
302.105103	896.555176	3217.586426	1431.302612	23.039217
302.477997	932.963501	3140.218750	1442.680176	23.092783
302.850830	919.310425	3122.014648	1401.720825	21.900826
303.223602	917.034912	2976.381104	1413.098389	24.088396
303.596375	905.657288	2930.870850	1363.036987	22.584269
303.969116	887.453125	2894.462402	1383.516602	24.716551
304.341766	930.687988	2873.982666	1369.863525	22.599533
304.714478	866.973450	2933.146240	1292.495850	20.594715
305.087067	857.871338	2860.329590	1276.567139	20.909090
305.459656	841.942688	3026.442627	1410.822876	26.041666
305.832214	928.412476	2878.533936	1322.077637	20.186699
306.204681	964.820801	2962.728027	1287.944824	16.173124
306.577148	919.310425	2876.258301	1283.393677	18.604647
306.949646	892.004150	2949.074951	1278.842651	18.805307
307.322021	935.239075	2914.942139	1294.771362	18.160919
307.694397	876.075500	2903.564453	1319.802124	21.885525
308.066742	869.248962	2896.738037	1363.036987	24.354658
308.439026	903.381775	2930.870850	1394.894287	24.242426
308.811279	951.167725	3008.238525	1308.424438	17.367254
309.183502	898.830688	3188.004639	1413.098389	22.465210
309.555695	919.310425	3240.341553	1506.394775	25.294117
309.927887	935.239075	3308.607178	1429.027100	20.805370
310.299988	887.453125	3217.586426	1351.659302	19.921871
310.672058	882.902100	3258.545898	1440.404663	23.467430
311.044128	939.790100	3397.352539	1392.618774	18.425926
311.416168	853.320313	3420.107666	1422.200562	22.163124
311.788147	944.341125	3358.668701	1435.853638	20.358152
312.160065	930.687988	3306.331787	1433.578125	21.168583
312.531982	905.657288	3399.628174	1481.364014	23.083939
312.903870	957.994263	3372.321777	1465.435425	21.017908
313.275696	910.208313	3151.596191	1340.281738	19.187817
313.647491	907.932800	3299.505127	1440.404663	22.264511
314.019318	942.065613	3076.504150	1353.934937	19.296379
314.391022	955.718750	3151.596191	1335.730713	17.305700
314.762726	855.595825	3201.657715	1399.445313	23.181377
315.134369	800.983337	3231.239502	1394.894287	24.438204
315.505981	914.759338	3449.689453	1392.618774	18.850990
315.877594	955.718750	3488.373291	1403.996338	17.699911
316.249146	914.759338	3326.811523	1406.271851	20.377357
316.620636	948.892151	3240.341553	1401.720825	19.761669
316.992157	919.310425	3096.983887	1367.588013	20.585161
317.363586	878.351013	2978.656738	1312.975464	20.693390
317.735016	919.310425	2999.136475	1319.802124	19.256018
318.106354	905.657288	2990.034424	1294.771362	18.668121
318.477722	878.351013	2955.901611	1376.690063	23.986856
318.849060	955.718750	3062.851074	1328.904175	17.710583
319.220306	841.942688	3019.616211	1292.495850	20.689655
319.591522	921.585938	3094.708252	1351.659302	19.790573
319.962738	1001.229126	3142.494141	1406.271851	18.916048
320.333923	857.871338	3253.994629	1351.659302	20.607786
320.705017	980.749451	3156.147461	1303.873413	14.853557
321.076111	962.545288	3117.463379	1333.455200	17.212252
321.447144	882.902100	3122.014648	1333.455200	20.121950
321.818176	885.177612	2844.401123	1272.016113	19.744480
322.189178	816.911987	2892.187012	1369.863525	26.644737
322.560120	887.453125	2933.146240	1306.148926	20.467186
322.931030	939.790100	3126.565674	1349.383789	18.730486
323.301910	898.830688	3149.320801	1328.904175	19.110214
323.672729	880.626526	3294.954102	1299.322388	17.342131
324.043549	857.871338	3495.199951	1431.302612	21.742884
324.414337	832.840637	3772.813477	1458.608887	21.284830
324.785095	882.902100	3900.242676	1406.271851	17.345398
325.155792	1014.882263	3845.630127	1442.680176	15.112540
325.526428	923.861450	3897.967041	1488.190552	18.974751
325.897034	894.279663	3777.364502	1438.129150	18.863457
326.267670	901.106262	3665.864014	1383.516602	17.448557
326.638184	892.004150	3811.497314	1388.067749	16.991428
327.008728	896.555176	3868.385254	1458.608887	18.912714
327.379211	962.545288	3841.079102	1456.333252	17.154150
327.749634	873.799988	3677.241699	1458.608887	20.860392
328.120026	921.585938	3613.527100	1381.241089	17.075230
328.490417	921.585938	3602.149414	1290.220337	13.752124
328.860748	921.585938	3511.128662	1351.659302	16.608082
329.231079	862.422363	3422.383301	1351.659302	19.111109
329.601318	901.106262	3333.637939	1356.210449	18.709076
329.971558	896.555176	3472.444824	1397.169800	19.434629
330.341736	928.412476	3481.546875	1378.965576	17.647058
330.711914	939.790100	3476.995850	1328.904175	15.336323
331.082062	914.759338	3533.883789	1365.312500	17.202435
331.452148	921.585938	3422.383301	1310.699951	15.559598
331.822174	946.616638	3520.230713	1322.077637	14.588862
332.192200	889.728638	3581.669678	1372.139038	17.920542
332.562134	928.412476	3729.578613	1469.986450	19.333876
332.932129	905.657288	3706.823486	1338.006226	15.434605
333.302063	948.892151	3806.946289	1378.965576	15.047771
333.671906	885.177612	4000.365479	1262.914063	12.125639
334.041718	926.136963	3843.354736	1392.618774	15.990641
334.411499	973.922913	3984.437012	1463.159912	16.250944
334.781281	935.239075	4002.641113	1415.373901	15.652817
335.151001	1037.637451	3966.232666	1506.394775	16.006218
335.520721	898.830688	3797.844238	1388.067749	16.875982
335.890350	957.994263	3816.048340	1422.200562	16.242041
336.259979	919.310425	3847.905762	1490.466064	19.502718
336.629547	921.585938	3995.814453	1410.822876	15.914137
336.999084	889.728638	3850.181152	1465.435425	19.446579
337.368622	928.412476	3847.905762	1397.169800	16.056120
337.738098	983.024963	3975.334961	1413.098389	14.372622
338.107513	830.565063	3963.957275	1465.435425	20.261440
338.476898	912.483826	3922.997803	1415.373901	16.704460
338.846252	887.453125	3886.589600	1424.476074	17.905918
339.215576	907.932800	4045.875977	1390.343262	15.373461
339.584869	873.799988	4023.120850	1413.098389	17.124277
339.954132	885.177612	3973.059326	1392.618774	16.433310
340.323334	841.942688	3806.946289	1442.680176	20.260935
340.692505	973.922913	3827.426025	1394.894287	14.752791
341.061646	923.861450	3686.343750	1367.588013	16.062603
341.430786	851.044800	3788.742188	1422.200562	19.442295
341.799896	887.453125	3845.630127	1465.435425	19.538462
342.168915	871.524475	3988.988037	1417.649414	17.518246
342.537903	873.799988	4007.192139	1383.516602	16.267246
342.906830	951.167725	3948.028564	1353.934937	13.439637
343.275757	946.616638	4116.416992	1388.067749	13.926780
343.644684	814.636475	4291.632324	1351.659302	15.445024
344.013550	914.759338	4155.101074	1524.598877	18.820223
344.382355	930.687988	4312.111816	1431.302612	14.804847
344.751129	957.994263	4760.389648	1454.057739	13.046078
345.119873	923.861450	4844.583984	1517.772339	15.147995
345.488586	935.239075	5049.380859	1551.905151	14.988936
345.857269	928.412476	4924.227051	1624.721802	17.425968
346.225891	955.718750	5078.962402	1549.629639	14.403973
346.594482	978.473938	5210.942871	1567.833862	13.924732
346.963043	903.381775	4974.288574	1535.976563	15.539408
347.331543	878.351013	4885.542969	1533.701050	16.354345
347.700043	896.555176	4694.399414	1570.109375	17.735172
348.068512	892.004150	4607.929688	1558.731689	17.942436
348.436951	937.514587	4528.286621	1492.741699	15.462611
348.805328	919.310425	4564.694824	1460.884399	14.856430
349.173645	921.585938	4421.336914	1419.924927	14.239270
349.541931	876.075500	4332.591797	1540.527588	19.223171
349.910217	932.963501	4623.858398	1506.394775	15.536374
350.278473	939.790100	4803.624512	1549.629639	15.783273
350.646667	912.483826	4701.226074	1533.701050	16.396397
351.014801	832.840637	4865.063477	1460.884399	15.575622
351.382935	957.994263	4744.460938	1656.579102	18.449516
351.751007	907.932800	4821.828613	1474.537476	14.476745
352.119049	882.902100	4726.256836	1531.425537	16.873890
352.487091	892.004150	4753.562988	1467.710938	14.908663
352.855072	857.871338	4956.084473	1558.731689	17.101608
353.222992	948.892151	4969.737305	1567.833862	15.393324
353.590881	926.136963	5090.339844	1565.558350	15.355192
353.958740	889.728638	5122.197266	1558.731689	15.806450
354.326599	939.790100	5370.229004	1613.344238	15.202876
354.694397	935.239075	5527.240234	1592.864502	14.321108
355.062134	917.034912	5647.842773	1626.997314	15.007214
355.429840	1003.504700	5663.771484	1590.588989	12.597654
355.797516	992.127075	5693.353027	1520.047852	11.229427
356.165192	919.310425	5961.864258	1743.048950	16.335741
356.532776	894.279663	5895.874512	1763.528564	17.379435
356.900360	921.585938	6114.324219	1702.089600	15.030676
357.267883	903.381775	6284.988281	1790.834839	16.490486
357.635376	917.034912	6644.520508	1661.130127	12.991656
358.002808	848.769287	6892.552734	1804.488037	15.813253
358.370270	846.493713	7149.686523	1895.508789	16.642599
358.737640	892.004150	7324.901367	1870.478149	15.210471
359.105011	937.514587	7070.042969	1888.682251	15.510204
359.472321	944.341125	6724.164063	1799.937012	14.803151
359.839569	882.902100	6646.796387	1729.395752	14.686141
360.206787	876.075500	6660.449219	1770.355225	15.460269
360.574005	851.044800	7013.155273	1840.896362	16.063517
360.941193	912.483826	7229.329590	1918.264038	15.922191
361.308319	894.279663	7582.035156	1906.886475	15.141206
361.675415	907.932800	8216.905273	2054.795166	15.691156
362.042450	894.279663	8924.592773	2198.153076	16.236895
362.409424	928.412476	9202.206055	2182.224365	15.154014
362.776428	932.963501	9491.197266	2189.051025	14.676949
363.143402	851.044800	9024.715820	2177.673340	16.230511
363.510284	962.545288	8387.569336	2009.284912	14.097458
363.877136	942.065613	7372.687500	1961.498901	15.852795
364.243988	980.749451	7138.308594	1838.620850	13.932004
364.610779	964.820801	6699.133301	1740.773438	13.531747
364.977539	921.585938	6489.785156	1772.630737	15.284022
365.344269	923.861450	6478.407715	1822.692139	16.181892
365.710938	910.208313	6121.150879	1740.773438	15.938866
366.077576	953.443237	6107.498047	1765.804199	15.761590
366.444183	878.351013	6018.752441	1718.018188	16.334661
366.810760	905.657288	5995.997070	1683.885376	15.288333
367.177277	912.483826	6218.998535	1747.599976	15.737564
367.543823	901.106262	6316.845703	1781.732788	16.260504
367.910248	892.004150	6300.916992	1729.395752	15.481698
368.276642	894.279663	6080.191406	1622.446289	14.041246
368.643036	887.453125	6032.405762	1729.395752	16.364439
369.009399	932.963501	5836.710938	1658.854614	14.802783
369.375671	878.351013	5791.200684	1697.538574	16.674387
369.741974	901.106262	5850.363770	1656.579102	15.264368
370.108215	964.820801	6014.201660	1731.671387	15.187022
370.474396	898.830688	5980.068848	1758.977539	16.927898
370.840546	919.310425	6050.609863	1608.793213	13.436807
371.206665	923.861450	6077.916016	1708.916138	15.231788
371.572784	998.953613	6068.813965	1615.619751	12.163375
371.938843	873.799988	6385.111328	1702.089600	15.028902
372.304840	912.483826	6307.743652	1711.191650	14.803881
372.670807	905.657288	6275.886230	1786.283813	16.398304
373.036713	928.412476	6287.264160	1636.099487	13.205945
373.402649	876.075500	6121.150879	1681.609863	15.357919
373.768524	912.483826	6153.008301	1781.732788	16.587061
374.134308	889.728638	6244.029297	1663.405762	14.449638
374.500122	864.697876	6266.784180	1740.773438	16.217356
374.865875	896.555176	6280.437500	1743.048950	15.722739
375.231567	898.830688	6421.519531	1697.538574	14.462300
375.597260	871.524475	6530.744629	1770.355225	15.882590
375.962891	869.248962	6642.245117	1788.559326	15.924320
376.328461	905.657288	6940.338379	1875.029175	16.063349
376.694031	871.524475	7017.706055	1818.141113	15.401703
377.059540	910.208313	7274.839844	1799.937012	13.979265
377.425049	942.065613	7650.300781	1936.468262	14.823610
377.790497	873.799988	8053.068359	1938.743774	14.833598
378.155945	942.065613	8059.894531	2057.070801	15.664961
378.521301	955.718750	7959.771973	1966.049927	14.424950
378.886597	901.106262	7641.198730	2004.733887	16.374073
379.251892	880.626526	7456.881836	1954.672363	16.332180
379.617157	948.892151	7088.247070	1831.794189	14.381022
379.982422	955.718750	6840.215332	1875.029175	15.622584
380.347595	919.310425	6883.450195	1772.630737	14.307517
380.712738	903.381775	6785.603027	1827.243164	15.705996
381.077820	812.360901	6924.409668	1831.794189	16.679077
381.442902	923.861450	6928.960938	1911.437500	16.445623
381.807953	901.106262	7138.308594	1865.927002	15.468806
382.172974	942.065613	6951.715820	1763.528564	13.669064
382.537933	971.647400	7045.012207	1756.702026	12.926189
382.902832	896.555176	6792.429688	1813.590088	15.553841
383.267700	866.973450	6867.521973	1756.702026	14.827455
383.632538	919.310425	7170.166016	1813.590088	14.306517
383.997345	998.953613	7349.932129	1784.008301	12.361161
384.362152	898.830688	7568.382324	1875.029175	14.636643
384.726898	889.728638	7481.912598	1900.059814	15.326198
385.091553	869.248962	7591.137207	1900.059814	15.335137
385.456238	864.697876	7552.453613	1859.100464	14.869002
385.820862	944.341125	7456.881836	1829.518677	13.591893
386.185425	957.994263	7652.576660	1902.335449	14.106050
386.549988	855.595825	7820.964844	1902.335449	15.027770
386.914490	860.146851	7698.086914	1824.967651	14.109817
387.278961	928.412476	7864.199707	1836.345337	13.090552
387.643372	944.341125	7850.546875	1934.192627	14.332784
388.007782	942.065613	8114.507324	1947.845825	14.022842
388.372101	896.555176	8248.762695	1927.366089	14.020428
388.736450	944.341125	7930.189941	1872.753662	13.289904
389.100739	896.555176	7871.026367	1859.100464	13.800979
389.464966	914.759338	8034.863770	1879.580200	13.550656
389.829163	921.585938	7764.077148	1840.896362	13.435318
390.193329	889.728638	7832.342773	1815.865601	13.339888
390.557495	898.830688	7786.832031	1849.998413	13.809052
390.921570	880.626526	7937.016602	1922.815063	14.769428
391.285614	957.994263	8255.589844	1968.325439	13.844713
391.649597	862.422363	8590.090820	2002.458252	14.752650
392.013550	910.208313	9215.859375	1936.468262	12.356165
392.377502	932.963501	9404.727539	1925.090576	11.710986
392.741455	917.034912	9275.022461	1954.672363	12.414920
393.105316	932.963501	9174.899414	2018.386963	13.169521
393.469086	976.198425	8956.450195	1993.356201	12.745935
393.832886	905.657288	8697.040039	1918.264038	12.996496
394.196655	948.892151	9024.715820	1986.529663	12.848689
394.560333	967.096313	8951.898438	1963.774414	12.482189
394.924042	896.555176	9311.430664	1961.498901	12.655491
395.287659	880.626526	9252.267578	2002.458252	13.400382
395.651245	928.412476	9099.807617	2022.937988	13.394598
396.014771	889.728638	8883.632813	1929.641602	13.008824
396.378296	971.647400	8567.335938	1804.488037	10.964650
396.741791	985.300537	8269.242188	1781.732788	10.934084
397.105255	903.381775	8317.028320	1863.651489	12.952731
397.468628	851.044800	8062.170410	1761.253052	12.622277
397.832001	926.136963	8023.486328	1702.089600	10.932992
398.195313	944.341125	8348.885742	1861.375977	12.384757
398.558624	923.861450	8266.966797	1749.875488	11.248838
398.921844	926.136963	8305.651367	1806.763550	11.933394
399.285095	921.585938	8046.241699	1761.253052	11.785371
399.648254	896.555176	8182.772949	1695.262939	10.961898
400.011383	919.310425	8226.007813	1752.151001	11.398318
400.374451	930.687988	8150.915527	1797.661377	12.007564
400.737549	942.065613	8339.784180	1765.804199	11.135036
401.100586	841.942688	8207.803711	1781.732788	12.758727
401.463562	901.106262	8212.354492	1679.334351	10.644258
401.826508	841.942688	8344.334961	1779.457275	12.496209
402.189392	923.861450	8255.589844	1788.559326	11.793916
402.552246	844.218201	8617.397461	1672.507813	10.655738
402.915070	946.616638	8210.079102	1670.232300	9.962407
403.277893	896.555176	8617.397461	1729.395752	10.786914
403.640656	937.514587	8785.786133	1772.630737	10.640765
404.003326	903.381775	9240.889648	1824.967651	11.053493
404.366028	926.136963	9022.440430	1806.763550	10.876897
404.728699	848.769287	9523.054688	1838.620850	11.411333
405.091248	880.626526	9889.413086	1888.682251	11.189695
405.453857	876.075500	9680.065430	1840.896362	10.958904
405.816345	860.146851	9470.717773	1859.100464	11.601479
406.178833	944.341125	9657.310547	1784.008301	9.636980
406.541260	923.861450	9807.495117	1836.345337	10.271516
406.903687	896.555176	9404.727539	1781.732788	10.403852
407.266052	905.657288	9318.257813	1824.967651	10.927778
407.628387	919.310425	9341.012695	1804.488037	10.510674
407.990662	869.248962	9106.633789	1765.804199	10.883979
408.352905	910.208313	9140.766602	1834.069824	11.224772
408.715118	898.830688	9277.297852	1729.395752	9.913092
409.077332	985.300537	8942.796875	1699.814087	8.979125
409.439484	957.994263	9391.074219	1695.262939	8.742579
409.801575	944.341125	9090.706055	1733.946899	9.692738
410.163605	951.167725	9479.819336	1672.507813	8.457845
410.525635	955.718750	9634.554688	1688.436401	8.442580
410.887604	898.830688	9925.821289	1724.844727	9.150493
411.249573	876.075500	9882.586914	1670.232300	8.817585
411.611481	889.728638	9750.606445	1690.711914	9.039548
411.973328	930.687988	9609.524414	1670.232300	8.521238
412.335144	998.953613	9716.473633	1631.548462	7.256592
412.696930	912.483826	9570.840820	1549.629639	7.358738
413.058685	914.759338	9432.034180	1561.007324	7.587498
413.420410	980.749451	9416.105469	1563.282837	6.905854
413.782104	946.616638	9686.891602	1656.579102	8.122885
414.143707	917.034912	9673.239258	1642.926025	8.290021
414.505310	921.585938	9586.769531	1581.486938	7.615546
414.866852	878.351013	9604.973633	1561.007324	7.822686
415.228394	885.177612	9832.525391	1667.956787	8.748729
415.589874	896.555176	10039.597656	1642.926025	8.163265
415.951324	896.555176	10098.761719	1592.864502	7.566764
416.312683	944.341125	10558.416992	1501.843750	5.798816
416.674072	921.585938	10522.007813	1654.303589	7.632140
417.035370	892.004150	10904.295898	1656.579102	7.636363
417.396667	910.208313	11150.051758	1583.762451	6.577777
417.757935	896.555176	11172.807617	1517.772339	6.045173
418.119141	887.453125	11798.575195	1677.058838	7.236705
418.480286	876.075500	12133.077148	1670.232300	7.054780
418.841400	1005.780212	12551.772461	1695.262939	5.971620
419.202484	885.177612	13034.183594	1727.120239	6.930136
419.563568	937.514587	13361.858398	1788.559326	6.849816
419.924591	937.514587	14260.688477	1977.427612	7.805295
420.285553	889.728638	14219.729492	1770.355225	6.606350
420.646484	898.830688	15389.347656	1865.927002	6.673995
421.007355	878.351013	15753.430664	1995.631714	7.511091
421.368225	853.320313	16620.404297	1936.468262	6.869678
421.729065	892.004150	16961.732422	1947.845825	6.570376
422.089874	860.146851	17610.255859	1959.223389	6.561608
422.450592	942.065613	17207.488281	2022.937988	6.645215
422.811279	851.044800	17189.283203	1988.805176	6.963789
423.171936	953.443237	16948.078125	1904.610962	5.946793
423.532593	876.075500	16868.435547	1975.152100	6.872510
423.893127	935.239075	17287.130859	1984.254150	6.415253
424.253723	928.412476	17521.509766	1991.080688	6.404279
424.614197	985.300537	17291.681641	1993.356201	6.181971
424.974670	955.718750	18163.207031	1954.672363	5.805342
425.335052	978.473938	18185.962891	2045.693237	6.202063
425.695496	953.443237	17214.314453	2063.897461	6.828996
426.055817	989.851563	17341.744141	2063.897461	6.568328
426.416168	969.371887	17255.273438	1997.907227	6.315495
426.776398	939.790100	16233.565430	1941.019287	6.546645
427.136627	887.453125	15805.767578	1829.518677	6.314826
427.496826	939.790100	15589.592773	1859.100464	6.275240
427.856995	955.718750	15164.070313	1852.273926	6.310058
428.217102	903.381775	14529.200195	1827.243164	6.780227
428.577179	967.096313	14192.422852	1756.702026	5.970407
428.937195	828.289551	13976.249023	1809.039063	7.459329
429.297180	862.422363	13291.317383	1824.967651	7.744416
429.657135	926.136963	13418.746094	1738.497925	6.502732
430.017059	996.678101	13600.788086	1806.763550	6.427153
430.376984	923.861450	13423.296875	1815.865601	7.136355
430.736786	907.932800	12945.437500	1777.181763	7.221172
431.096588	955.718750	12977.294922	1790.834839	6.946810
431.456360	876.075500	12972.744141	1661.130127	6.489841
431.816071	957.994263	12738.365234	1711.191650	6.393664
432.175781	926.136963	12879.447266	1758.977539	6.967447
432.535400	930.687988	13029.631836	1781.732788	7.034042
432.895020	866.973450	12697.406250	1699.814087	7.039815
433.254578	923.861450	13034.183594	1731.671387	6.670425
433.614105	989.851563	13534.797852	1738.497925	5.967713
433.973602	892.004150	13514.318359	1774.906250	6.994772
434.333038	876.075500	13846.543945	1724.844727	6.543859
434.692444	894.279663	13737.319336	1702.089600	6.289865
435.051819	901.106262	13973.973633	1715.742676	6.231505
435.411133	921.585938	14046.790039	1679.334351	5.773232
435.770416	967.096313	13075.142578	1711.191650	6.145462
436.129669	919.310425	14026.310547	1743.048950	6.284722
436.488861	917.034912	13527.970703	1768.079712	6.748467
436.848083	907.932800	13562.103516	1604.242188	5.502608
437.207184	903.381775	13564.379883	1672.507813	6.074766
437.566254	851.044800	13769.176758	1704.365112	6.605601
437.925293	857.871338	13862.472656	1793.110352	7.191601
438.284363	896.555176	14165.117188	1692.987427	6.002400
438.643311	926.136963	14342.607422	1633.823975	5.274763
439.002258	962.545288	14240.208984	1640.650513	5.107112
439.361145	901.106262	14888.732422	1702.089600	5.726371
439.719971	903.381775	15325.632813	1667.956787	5.301357
440.078827	937.514587	15557.735352	1733.946899	5.447471
440.437592	932.963501	16090.208008	1677.058838	4.909173
440.796295	855.595825	16153.921875	1724.844727	5.681987
441.155029	887.453125	17064.130859	1856.824951	5.992404
441.513672	948.892151	17375.876953	1840.896362	5.430115
441.872253	864.697876	17205.212891	1702.089600	5.124635
442.230865	903.381775	17075.507813	1724.844727	5.079499
442.589386	932.963501	17048.201172	1622.446289	4.278452
442.947876	905.657288	16386.025391	1652.028076	4.821402
443.306335	862.422363	16399.677734	1695.262939	5.360281
443.664764	885.177612	15828.522461	1663.405762	5.207858
444.023102	882.902100	15726.124023	1592.864502	4.783075
444.381500	910.208313	15553.184570	1749.875488	5.734266
444.739777	873.799988	15783.012695	1692.987427	5.494505
445.098022	932.963501	16247.218750	1674.783325	4.843983
445.456238	880.626526	16413.332031	1683.885376	5.171403
445.814423	880.626526	16677.291016	1754.426514	5.531548
446.172577	912.483826	17821.878906	1743.048950	4.911856
446.530701	957.994263	17901.521484	1831.794189	5.157131
446.888733	907.932800	18104.042969	1834.069824	5.385736
447.246765	903.381775	19371.507813	1827.243164	5.002464
447.604736	964.820801	18572.800781	1724.844727	4.316360
447.962677	896.555176	18768.496094	1927.366089	5.767761
448.320587	894.279663	18971.017578	1859.100464	5.337361
448.678436	926.136963	18231.472656	1831.794189	5.233399
449.036255	882.902100	18135.900391	1859.100464	5.658138
449.394043	887.453125	17089.162109	1884.131226	6.151685
449.751770	919.310425	17455.519531	1838.620850	5.559378
450.109467	876.075500	17139.222656	1834.069824	5.890584
450.467163	876.075500	16954.906250	1925.090576	6.524200
450.824768	892.004150	16747.833984	1729.395752	5.281285
451.182343	901.106262	16508.904297	1863.651489	6.167079
451.539886	846.493713	15787.563477	1809.039063	6.442279
451.897369	889.728638	15821.696289	1838.620850	6.354770
452.254822	955.718750	15910.441406	1920.539551	6.451613
452.612274	889.728638	16365.545898	1893.233276	6.484340
452.969635	937.514587	16042.421875	1902.335449	6.387466
453.326965	826.014038	16147.095703	2027.489014	7.841972
453.684326	839.667175	15985.533203	2086.652588	8.233173
454.041534	905.657288	15421.204102	2093.479248	8.183102
454.398773	989.851563	15239.163086	2141.265137	8.080485
454.755951	903.381775	14704.415039	2079.825928	8.524319
455.113098	953.443237	14333.505859	2079.825928	8.418366
455.470215	878.351013	14886.457031	2145.816162	9.048083
455.827240	905.657288	14467.761719	2041.142212	8.372483
456.184265	939.790100	14344.882813	2168.571289	9.166526
456.541260	853.320313	14563.333008	2250.489990	10.190871
456.898193	905.657288	14338.056641	2270.969727	10.164323
457.255096	816.911987	14451.833008	2421.154053	11.765687
457.611969	910.208313	14347.158203	2375.643799	10.906013
457.968781	894.279663	14338.056641	2484.868652	11.831414
458.325531	930.687988	15052.570313	2632.777588	12.052852
458.682312	928.412476	15685.165039	2701.043213	12.012336
459.039001	939.790100	16511.179688	2871.707275	12.406839
459.395630	892.004150	16929.875000	3044.646729	13.422246
459.752289	876.075500	18545.494141	3340.464600	13.947201
460.108856	914.759338	19642.294922	3631.731201	14.507899
460.465363	926.136963	20502.443359	3779.640137	14.576310
460.821899	876.075500	20427.349609	3818.323975	15.048884
461.178345	848.769287	19778.826172	3884.313965	16.035582
461.534760	994.402588	19205.396484	3943.477539	16.193926
461.891144	889.728638	18263.330078	3900.242676	17.328094
462.247467	901.106262	17312.162109	3834.252441	17.872988
462.603760	962.545288	17223.416016	3747.782715	17.128464
462.960052	910.208313	16577.169922	3740.956299	18.068264
463.316254	910.208313	16010.564453	3672.690674	18.294153
463.672424	896.555176	15864.930664	3634.006836	18.288235
464.028564	878.351013	15259.642578	3715.925537	19.731012
464.384644	930.687988	15182.274414	3841.079102	20.421524
464.740723	901.106262	15448.510742	3909.344727	20.678867
465.096741	914.759338	15384.795898	3891.140625	20.569273
465.452698	871.524475	15296.050781	4064.080078	22.132828
465.808655	969.371887	15293.775391	4025.396240	21.334393
466.164520	901.106262	15225.509766	4091.386475	22.271645
466.520355	889.728638	15871.757813	4198.335938	22.083839
466.876190	937.514587	16067.452148	4428.163574	23.071138
467.231964	973.922913	16215.361328	4532.837402	23.350254
467.587677	857.871338	16661.363281	4776.318359	24.794817
467.943390	871.524475	16588.546875	4721.705566	24.496887
468.299011	907.932800	16153.921875	4648.889160	24.537313
468.654633	928.412476	16035.594727	4708.052734	25.018829
469.010223	923.861450	16190.330078	4826.379395	25.562677
469.365723	896.555176	15539.531250	4799.073242	26.651125
469.721191	903.381775	15596.419922	4921.951660	27.350163
470.076660	901.106262	15139.040039	4805.899902	27.425283
470.432068	901.106262	15500.847656	4819.553223	26.839153
470.787445	923.861450	14993.406250	4983.390625	28.853310
471.142792	903.381775	15107.182617	4974.288574	28.660686
471.498016	896.555176	15343.836914	5053.931641	28.776186
471.853271	903.381775	15626.000977	5129.023926	28.701700
472.208496	896.555176	15337.009766	5017.523438	28.537663
472.563660	903.381775	15687.440430	5151.779297	28.736341
472.918762	905.657288	15717.022461	5406.637207	30.388691
473.273865	939.790100	16420.158203	5504.484863	29.486992
473.628876	907.932800	16577.169922	5654.669434	30.293350
473.983917	919.310425	16845.679688	5647.842773	29.689957
474.338837	898.830688	16690.945313	5686.526367	30.317003
474.693787	869.248962	16456.566406	5813.955566	31.722628
475.048645	951.167725	16502.076172	5811.680176	31.255491
475.403503	957.994263	16643.158203	5950.486816	31.829393
475.758270	889.728638	16795.619141	6011.925781	32.203148
476.113037	898.830688	16827.476563	6089.293457	32.585712
476.467773	948.892151	17202.937500	6287.264160	32.843346
476.822418	937.514587	18122.248047	6671.827148	33.368641
477.177063	889.728638	17742.236328	6467.030273	33.094788
477.531647	807.809875	18110.869141	6712.786133	34.126778
477.886200	896.555176	18891.373047	6901.654785	33.371269
478.240723	932.963501	19030.179688	7147.410645	34.339245
478.595184	866.973450	19457.978516	7377.238281	35.018356
478.949585	905.657288	19592.234375	7268.013672	34.047737
479.303986	873.799988	19685.531250	7602.515137	35.768723
479.658325	969.371887	19931.287109	7559.280273	34.753387
480.012634	873.799988	20090.572266	7716.291016	35.606873
480.366913	887.453125	20579.810547	7884.679688	35.532700
480.721130	926.136963	21146.414063	8130.436035	35.629082
481.075317	844.218201	22136.265625	8389.844727	35.438709
481.429474	937.514587	23082.882813	8965.551758	36.251537
481.783569	914.759338	24038.601563	9427.482422	36.813618
482.137604	926.136963	25083.066406	9714.198242	36.379051
482.491669	923.861450	27929.742188	10663.090820	36.063366
482.845612	866.973450	30978.939453	11948.759766	36.801933
483.199554	951.167725	34697.140625	13512.042969	37.221848
483.553436	896.555176	40647.628906	15858.104492	37.638100
483.907318	857.871338	47194.300781	18784.423828	38.687817
484.261139	928.412476	53442.882813	21519.599609	39.210503
484.614899	860.146851	55315.636719	22962.281250	40.587524
484.968628	869.248962	55247.371094	22853.054688	40.427670
485.322357	907.932800	52143.558594	21556.007813	40.300228
485.675964	932.963501	48812.195313	19576.304688	38.938267
486.029572	914.759338	44577.453125	17892.419922	38.883675
486.383148	894.279663	41990.183594	16763.761719	38.615730
486.736694	939.790100	39962.695313	16224.462891	39.168465
487.090149	962.545288	39990.003906	16465.667969	39.723633
487.443604	903.381775	41186.925781	16847.955078	39.580860
487.796997	914.759338	42966.382813	17660.316406	39.821426
488.150360	880.626526	44199.714844	18456.750000	40.573620
488.503693	955.718750	45096.269531	18511.361328	39.772141
488.856964	942.065613	44233.847656	18308.839844	40.115635
489.210175	901.106262	41532.804688	17323.539063	40.417786
489.563416	910.208313	39173.089844	16504.351563	40.755276
489.916565	898.830688	37065.957031	15384.795898	40.052853
490.269653	989.851563	34660.734375	14165.117188	39.129551
490.622772	946.616638	33559.378906	14008.106445	40.050243
490.975769	871.524475	33727.769531	14251.586914	40.723042
491.328735	855.595825	35097.632813	15118.560547	41.653381
491.681732	853.320313	37154.703125	16083.380859	41.954491
492.034607	946.616638	39655.500000	17020.896484	41.526077
492.387482	935.239075	40040.062500	17303.060547	41.856270
492.740326	901.106262	39107.101563	16738.730469	41.453243
493.093079	864.697876	36990.867188	15951.400391	41.761147
493.445862	848.769287	33832.441406	14574.710938	41.614353
493.798523	917.034912	31297.513672	13557.552734	41.607368
494.151215	923.861450	28680.664063	12731.539063	42.539761
494.503815	960.269775	26939.890625	11625.635742	41.052818
494.856384	919.310425	25576.853516	11222.868164	41.786636
495.208923	976.198425	24252.500000	10788.244141	42.154663
495.561432	964.820801	23756.437500	10453.742188	41.633385
495.913879	873.799988	23333.189453	10476.498047	42.755833
496.266296	871.524475	23847.457031	10724.529297	42.884029
496.618683	853.320313	23688.171875	10672.192383	42.999500
496.970978	910.208313	24309.388672	11031.724609	43.255859
497.323273	896.555176	24543.767578	10890.642578	42.263279
497.675507	912.483826	24869.166016	11127.296875	42.638683
498.027710	923.861450	24885.095703	11040.827148	42.222221
498.379852	885.177612	24334.419922	11002.143555	43.144104
498.731995	835.116150	24263.878906	10936.153320	43.113831
499.084076	898.830688	23697.273438	10726.804688	43.108089
499.436096	903.381775	23563.017578	10590.273438	42.749546
499.788086	928.412476	22828.025391	10524.284180	43.817543
500.140106	937.514587	22605.023438	10105.587891	42.312538
500.491943	903.381775	22097.582031	9809.770508	42.022762
500.843842	885.177612	21731.224609	9948.577148	43.477783
501.195679	844.218201	21267.017578	9518.503906	42.473541
501.547455	855.595825	20795.984375	9816.596680	44.938950
501.899231	912.483826	20807.361328	9666.412109	44.000919
502.250885	917.034912	20695.861328	9468.442383	43.235161
502.602600	855.595825	20666.279297	9502.575195	43.648064
502.954193	978.473938	20331.779297	9443.411133	43.738976
503.305786	898.830688	20097.400391	9445.686523	44.518188
503.657379	994.402588	20600.289063	9541.258789	43.593319
504.008820	898.830688	20283.992188	9730.126953	45.556988
504.360291	923.861450	20916.587891	9623.177734	43.512405
504.711700	903.381775	21280.669922	9684.616211	43.093243
505.063080	898.830688	20957.546875	9839.351563	44.571747
505.414368	862.422363	21121.384766	9695.994141	43.603279
505.765656	944.341125	20893.832031	9752.881836	44.154217
506.116943	896.555176	20570.708984	9730.126953	44.899376
506.468109	878.351013	20477.412109	9670.963867	44.862423
506.819305	917.034912	20709.515625	9668.687500	44.217056
507.170410	919.310425	20472.861328	9682.340820	44.815544
507.521484	846.493713	20830.117188	9518.503906	43.395584
507.872559	944.341125	20468.310547	9620.902344	44.440563
508.223480	955.718750	20802.810547	9875.760742	44.943825
508.574493	951.167725	21201.027344	9978.159180	44.578045
508.925385	866.973450	21619.722656	10119.241211	44.583332
509.276245	905.657288	21692.539063	10303.558594	45.210735
509.627045	928.412476	21826.794922	10339.966797	45.034847
509.977814	903.381775	22104.408203	10405.957031	44.821297
510.328613	889.728638	22493.523438	10462.844727	44.312199
510.679260	878.351013	22404.777344	10364.997070	44.069771
511.029999	851.044800	22498.074219	10774.590820	45.842529
511.380585	926.136963	23010.066406	10478.773438	43.256054
511.731140	917.034912	22960.005859	10681.294922	44.296478
512.081726	896.555176	23219.414063	10770.040039	44.230373
512.432129	821.463013	23360.496094	11038.551758	45.330643
512.782654	876.075500	23592.599609	11186.459961	45.387161
513.133057	967.096313	23685.896484	10849.683594	43.499599
513.483398	921.585938	23326.363281	10881.540039	44.454601
513.833801	976.198425	23510.681641	11084.061523	44.855095
514.183960	992.127075	23180.730469	10881.540039	44.569786
514.534302	887.453125	23062.404297	10690.396484	44.207283
514.884460	939.790100	23101.087891	10706.325195	44.070232
515.234619	914.759338	22700.595703	10704.049805	44.934196
515.584717	903.381775	22630.054688	10710.875977	45.140339
515.934753	955.718750	22812.095703	10685.845703	44.518482
516.284851	932.963501	22800.718750	10947.530273	45.796040
516.634766	955.718750	23353.669922	11127.296875	45.412983
516.984741	901.106262	23531.160156	11318.440430	46.033180
517.334595	903.381775	24561.970703	11525.512695	44.897564
517.684448	946.616638	25192.291016	11753.064453	44.570625
518.034363	953.443237	26371.009766	12306.016602	44.664280
518.384094	889.728638	27592.964844	12563.150391	43.715382
518.733826	905.657288	28503.173828	13050.111328	44.005608
519.083496	869.248962	29174.453125	13461.981445	44.489105
519.433167	869.248962	29190.380859	13985.350586	46.312065
519.782776	951.167725	28798.992188	13380.062500	44.631474
520.132324	896.555176	28682.939453	13468.807617	45.246086
520.481873	882.902100	28089.029297	13036.458984	44.672131
520.831299	887.453125	27445.056641	12581.354492	44.032215
521.180786	871.524475	26710.062500	12356.078125	44.447384
521.530151	923.861450	26441.550781	12331.046875	44.703049
521.879517	901.106262	25572.302734	11953.310547	44.798004
522.228882	907.932800	26163.937500	11962.413086	43.769714
522.578064	885.177612	25167.259766	11819.054688	45.028580
522.927307	987.576050	25843.089844	12162.658203	44.960175
523.276489	983.024963	25408.464844	11903.249023	44.708401
523.625610	885.177612	25720.210938	12203.618164	45.574493
523.974792	896.555176	26330.050781	12378.833008	45.146278
524.323792	894.279663	26948.992188	12321.945313	43.860264
524.672852	905.657288	27251.636719	12906.753906	45.551910
525.021790	907.932800	28532.755859	13188.918945	44.456345
525.370728	953.443237	29859.384766	13996.728516	45.123199
525.719604	869.248962	31752.617188	14620.220703	44.525490
526.068420	855.595825	33252.183594	15705.644531	45.838310
526.417297	921.585938	34401.324219	16367.821289	46.136070
526.765991	864.697876	35429.859375	16697.771484	45.806450
527.114746	978.473938	36399.230469	16975.384766	45.162533
527.463379	928.412476	38160.484375	17478.275391	44.450558
527.812012	919.310425	40156.117188	18750.291016	45.444523
528.160706	887.453125	43601.253906	20456.931641	45.815353
528.509155	880.626526	48680.214844	22759.759766	45.772636
528.857727	910.208313	52662.378906	25490.384766	47.495930
529.206177	876.075500	55422.585938	27215.228516	48.287510
529.554565	914.759338	55893.617188	26944.441406	47.344891
529.902893	896.555176	54414.527344	26054.712891	47.008804
530.251221	896.555176	51624.742188	23999.917969	45.543442
530.599548	921.585938	47813.242188	22268.246094	45.523365
530.947876	880.626526	43831.082031	20595.738281	45.901981
531.296021	951.167725	40561.160156	18545.494141	44.418907
531.644165	860.146851	37823.707031	17553.367188	45.161293
531.992249	901.106262	36424.261719	16950.353516	45.179676
532.340454	860.146851	35673.339844	16426.984375	44.715343
532.688354	894.279663	35812.144531	16672.740234	45.187363
533.036438	932.963501	37254.828125	17298.509766	45.057011
533.384338	919.310425	39241.355469	18058.533203	44.724182
533.732239	894.279663	41368.968750	19168.986328	45.150951
534.080139	898.830688	41471.367188	19319.171875	45.401012
534.427917	914.759338	41070.875000	18779.873047	44.489143
534.775757	894.279663	38809.007813	17853.736328	44.730526
535.123474	914.759338	37329.917969	16986.763672	44.135475
535.471191	935.239075	35120.386719	16142.544922	44.485123
535.818848	844.218201	33673.156250	15596.419922	44.936581
536.166382	880.626526	32387.488281	15043.467773	44.951607
536.513977	971.647400	33295.421875	15218.683594	44.076027
536.861511	989.851563	33488.839844	15311.979492	44.069458
537.208984	910.208313	33909.812500	15514.500977	44.255962
537.556396	939.790100	33673.156250	15291.500000	43.844284
537.903809	919.310425	32683.304688	14918.314453	44.071926
538.251160	892.004150	31452.248047	14515.546875	44.579300
538.598389	889.728638	30077.833984	14092.300781	45.232716
538.945740	957.994263	28899.113281	13564.379883	45.117683
539.292969	910.208313	28714.796875	13066.040039	43.718800
539.640137	923.861450	28694.316406	13330.000977	44.673878
539.987244	873.799988	29049.298828	13097.897461	43.385559
540.334351	955.718750	30350.896484	13696.359375	43.342621
540.681458	898.830688	31850.464844	14583.812500	44.214085
541.028442	912.483826	34895.113281	16012.839844	44.435516
541.375366	917.034912	37766.820313	17605.705078	45.288380
541.722290	807.809875	41066.324219	19109.824219	45.461224
542.069153	871.524475	42975.484375	19715.111328	44.754902
542.416016	864.697876	42650.085938	19439.773438	44.453522
542.762756	848.769287	41535.082031	19157.609375	44.999996
543.109558	964.820801	40224.382813	18156.380859	43.789486
543.456299	862.422363	38444.925781	17510.132813	44.296440
543.802917	896.555176	36324.136719	16813.822266	44.929028
544.149536	939.790100	35074.878906	15819.420898	43.590424
544.496094	912.483826	32967.746094	14845.498047	43.465611
544.842651	992.127075	31331.646484	14226.555664	43.621090
545.189148	937.514587	29586.322266	13468.807617	43.741062
545.535583	923.861450	28871.808594	13157.061523	43.771374
545.882019	887.453125	28048.070313	12881.723633	44.160522
546.228333	917.034912	27715.843750	12686.028320	43.916107
546.574707	957.994263	27693.087891	12690.579102	43.884586
546.920898	926.136963	27727.220703	12788.426758	44.260487
547.267212	898.830688	27906.986328	12970.468750	44.696266
547.613342	896.555176	27549.730469	12813.458008	44.711002
547.959473	864.697876	27440.505859	12458.476563	43.625309
548.305664	919.310425	26305.019531	12019.300781	43.725349
548.651611	926.136963	25237.800781	11434.492188	43.223515
548.997742	953.443237	24325.316406	11225.144531	43.948986
549.343689	876.075500	23233.068359	10556.140625	43.297710
549.689575	1001.229126	22313.757813	10057.801758	42.494122
550.035522	983.024963	21517.324219	9873.484375	43.295654
550.381287	951.167725	20909.759766	9418.380859	42.423901
550.727173	898.830688	21050.843750	9345.563477	41.915077
551.072876	905.657288	20436.453125	9254.542969	42.747292
551.418640	882.902100	20290.818359	9204.481445	42.877243
551.764282	846.493713	19985.898438	8881.357422	41.980740
552.109863	882.902100	20181.593750	8860.877930	41.339462
552.455505	939.790100	20500.166016	9268.196289	42.577950
552.801025	939.790100	20634.421875	8992.858398	40.889664
553.146545	855.595825	20964.373047	9343.288086	42.208893
553.491943	930.687988	21128.210938	9181.726563	40.851738
553.837341	894.279663	20905.208984	9402.452148	42.517628
554.182800	898.830688	20916.587891	9286.400391	41.900642
554.528015	973.922913	20238.482422	8972.378906	41.519020
554.873352	882.902100	19630.917969	8740.275391	41.910423
555.218628	907.932800	19965.419922	8649.254883	40.620899
555.563721	898.830688	19435.222656	8660.631836	41.873310
555.908875	912.483826	19062.037109	8446.733398	41.512039
556.254028	914.759338	18490.882813	8282.895508	41.921284
556.599121	889.728638	18545.494141	8203.252930	41.422867
556.944031	901.106262	18588.728516	8180.497070	41.155277
557.289063	921.585938	18408.962891	8041.690430	40.715679
557.633972	930.687988	18531.841797	8046.241699	40.426632
557.978882	944.341125	18288.361328	7800.485352	39.530308
558.323792	942.065613	17953.859375	7684.433594	39.633495
558.668518	892.004150	17860.562500	7654.852051	39.855167
559.013306	985.300537	17817.328125	7868.750977	40.894955
559.358032	894.279663	17628.458984	7700.362305	40.671741
559.702637	905.657288	17746.787109	7666.229492	40.143227
560.047363	889.728638	17603.429688	7543.351563	39.809395
560.391846	905.657288	17744.511719	7754.975098	40.675678
560.736450	937.514587	17769.541016	7620.719238	39.705284
561.080933	926.136963	17915.175781	7734.495117	40.075005
561.425354	898.830688	18327.044922	7736.770508	39.234886
561.769775	914.759338	18106.318359	7691.260254	39.417606
562.114136	905.657288	17821.878906	7554.729004	39.305893
562.458496	901.106262	18238.298828	7688.984863	39.152119
562.802673	907.932800	18361.177734	7597.963867	38.331161
563.146912	869.248962	17906.072266	7493.290039	38.880726
563.491150	919.310425	17817.328125	7531.973633	39.132774
563.835266	905.657288	17937.929688	7504.667480	38.744160
564.179443	937.514587	18065.359375	7454.605957	38.049686
564.523438	844.218201	17919.726563	7666.229492	39.952026
564.867493	992.127075	17933.378906	7538.800293	38.643387
565.211426	894.279663	18295.187500	7618.443848	38.642605
565.555359	905.657288	18506.810547	7700.362305	38.603752
565.899231	942.065613	18884.546875	7663.954102	37.463543
566.243042	882.902100	19398.814453	8059.894531	38.761211
566.586914	914.759338	19694.632813	8075.823242	38.131588
566.930603	907.932800	20133.808594	8262.416016	38.253048
567.274292	896.555176	20293.093750	8255.589844	37.939938
567.617981	912.483826	20122.429688	8164.568848	37.751720
567.961609	928.412476	19888.052734	7993.904785	37.265961
568.305237	921.585938	19168.986328	7905.159180	38.271606
568.648682	923.861450	18957.363281	7645.750000	37.274448
568.992188	921.585938	18509.085938	7668.504883	38.362011
569.335632	901.106262	18465.851563	7616.167969	38.230335
569.679016	873.799988	18559.148438	7509.218750	37.519302
570.022461	928.412476	18502.259766	7431.851074	37.006344
570.365662	860.146851	18725.259766	7663.954102	38.084320
570.708984	937.514587	18561.423828	7504.667480	37.262745
571.052185	914.759338	18647.892578	7454.605957	36.879253
571.395386	917.034912	19130.302734	7527.422852	36.294353
571.738525	926.136963	19628.642578	7566.106445	35.503101
572.081604	876.075500	20099.675781	7811.862793	36.079544
572.424683	896.555176	20290.818359	7962.047363	36.430836
572.767578	887.453125	20500.166016	7921.087891	35.862629
573.110596	862.422363	20172.492188	8007.557617	37.002121
573.453552	873.799988	20249.859375	7886.955078	36.194954
573.796387	912.483826	20065.542969	7673.056152	35.297611
574.139282	969.371887	19594.509766	7527.422852	35.210751
574.481995	876.075500	19355.580078	7577.484375	36.264008
574.824768	1012.606750	19316.896484	7415.922363	34.982597
575.167480	923.861450	19528.519531	7550.178223	35.616440
575.510132	944.341125	19107.548828	7384.064941	35.454773
575.852722	921.585938	19244.080078	7384.064941	35.270737
576.195251	901.106262	19098.445313	7268.013672	34.988121
576.537842	967.096313	18859.515625	7190.645508	34.783161
576.880188	976.198425	18572.800781	7115.553711	34.889439
577.222717	946.616638	18185.962891	7006.328613	35.150475
577.565063	930.687988	17940.205078	6899.378906	35.090302
577.907410	889.728638	17589.775391	6740.092773	35.032024
578.249756	907.932800	17093.712891	6473.856445	34.387737
578.591919	871.524475	16663.638672	6357.805176	34.740635
578.934204	948.892151	16267.698242	6221.273926	34.417709
579.276306	978.473938	16370.096680	6196.243164	33.900059
579.618469	853.320313	15889.961914	5891.323242	33.504841
579.960571	853.320313	15519.051758	5852.639648	34.088444
580.302551	921.585938	15421.204102	5784.374023	33.537354
580.644531	939.790100	15503.123047	5864.017090	33.812500
580.986511	964.820801	15323.357422	5777.547363	33.518223
581.328369	964.820801	14852.324219	5470.352051	32.443062
581.670227	930.687988	15013.886719	5536.342285	32.703182
582.012024	905.657288	14440.455078	5481.729492	33.809685
582.353821	887.453125	14838.670898	5406.637207	32.392757
582.695496	973.922913	14699.864258	5577.301270	33.537796
583.037231	944.341125	14408.597656	5415.739746	33.209396
583.378845	873.799988	14763.579102	5456.698730	32.994759
583.720398	919.310425	14504.169922	5381.606934	32.847572
584.062012	892.004150	14406.322266	5192.738281	31.823540
584.403442	912.483826	14551.955078	5208.666992	31.498163
584.744934	955.718750	14303.923828	5265.555176	32.287762
585.086365	907.932800	14283.444336	5160.881348	31.796532
585.427734	942.065613	14242.484375	5201.840332	32.027374
585.768982	901.106262	14035.412109	5174.534180	32.536381
586.110291	907.932800	14042.239258	5167.707520	32.432430
586.451599	903.381775	13935.289063	5122.197266	32.372971
586.792725	901.106262	14035.412109	5042.554199	31.531532
587.133850	951.167725	13937.564453	4928.777832	30.629051
587.474915	935.239075	14269.791016	5165.432129	31.723547
587.815979	907.932800	14224.280273	5065.309082	31.220095
588.157043	923.861450	14053.616211	5206.391602	32.616985
588.497925	871.524475	14258.413086	5015.248047	30.953598
588.838867	967.096313	14276.617188	4972.013184	30.090618
589.179749	985.300537	14397.219727	4978.839355	29.776043
589.520569	921.585938	14588.364258	5074.411621	30.386282
589.861450	892.004150	14576.986328	5074.411621	30.562021
590.202087	978.473938	14624.772461	4931.053711	28.964483
590.542847	871.524475	14886.457031	4924.227051	28.917032
590.883484	939.790100	15070.774414	5031.176270	28.953299
591.224121	939.790100	14840.946289	5122.197266	30.086758
591.564636	905.657288	14759.028320	4921.951660	28.991459
591.905151	971.647400	14599.741211	4792.246582	28.034729
592.245667	935.239075	14620.220703	4810.451172	28.317263
592.585999	882.902100	14306.199219	4744.460938	28.767590
592.926453	882.902100	14222.004883	4664.817871	28.352100
593.266724	912.483826	14130.984375	4689.848145	28.576344
593.607056	882.902100	14215.178711	4546.490723	27.479094
593.947388	876.075500	14322.127930	4603.378418	27.720425
594.287476	910.208313	14303.923828	4676.195313	28.117567
594.627686	894.279663	14467.761719	4655.715332	27.711647
594.967773	898.830688	14820.466797	4723.980957	27.476299
595.307861	928.412476	14811.365234	4819.553223	28.028191
595.647888	898.830688	14838.670898	4735.358887	27.522039
595.987854	882.902100	15170.897461	4887.818848	28.029942
596.327820	926.136963	15441.684570	4962.910645	27.809999
596.667725	928.412476	15842.175781	4949.257813	26.960634
597.007568	930.687988	16609.025391	5026.625488	26.124819
597.347351	948.892151	16923.048828	5081.237793	25.868944
597.687073	926.136963	17582.949219	5233.697754	25.860653
598.026794	969.371887	17089.162109	5012.972168	25.084696
598.366455	905.657288	16597.648438	5015.248047	26.189096
598.706116	926.136963	16208.535156	4853.686035	25.699821
599.045654	851.044800	15662.410156	4628.409180	25.503147
599.385193	901.106262	14931.967773	4544.214844	25.964968
599.724731	898.830688	14438.179688	4507.806641	26.655462
600.064087	939.790100	14251.586914	4337.142578	25.521366
600.403564	828.289551	14151.463867	4127.794922	24.765160
600.742920	887.453125	13714.563477	4161.927734	25.527765
601.082153	935.239075	13746.420898	4150.549805	25.097691
601.421387	905.657288	13550.726563	4109.590332	25.337410
601.760620	919.310425	13375.511719	4023.120850	24.917793
602.099854	887.453125	13566.655273	4141.447754	25.664034
602.438843	987.576050	13776.002930	3959.406250	23.238434
602.778015	994.402588	13755.523438	4025.396240	23.751781
603.117065	876.075500	14592.915039	4200.611328	24.236895
603.456055	978.473938	14542.853516	4234.744141	24.006039
603.794983	989.851563	15011.610352	4305.285156	23.644920
604.133850	905.657288	15578.215820	4446.367676	24.131514
604.472778	935.239075	16119.789063	4496.429199	23.452721
604.811584	948.892151	16672.740234	4614.756348	23.314041
605.150330	905.657288	16954.906250	4835.481934	24.486034
605.489075	930.687988	17243.896484	4753.562988	23.434231
605.827698	898.830688	17152.875000	4541.939453	22.413553
606.166382	878.351013	16731.904297	4541.939453	23.108940
606.504883	887.453125	16147.095703	4448.643066	23.337309
606.843445	1023.984375	15653.307617	4337.142578	22.647379
607.181946	923.861450	15284.672852	4289.356934	23.435274
607.520386	928.412476	14774.957031	4016.294189	22.300739
607.858826	910.208313	14240.208984	4036.773926	23.455105
608.197083	953.443237	13962.595703	3891.140625	22.581774
608.535461	871.524475	14133.259766	3927.548828	23.043926
608.873718	866.973450	14174.218750	3934.375488	23.050617
609.211914	919.310425	14322.127930	3861.558838	21.952463
609.550171	953.443237	14963.825195	3993.539063	21.698879
609.888245	800.983337	15205.030273	4152.825684	23.270144
610.226318	901.106262	15557.735352	4134.621094	22.061790
610.564392	955.718750	15528.154297	4159.651855	21.986258
610.902344	905.657288	15220.958984	4107.314941	22.365282
611.240295	955.718750	15116.285156	3897.967041	20.777758
611.578247	923.861450	14715.792969	4002.641113	22.323050
611.916138	894.279663	14308.474609	3943.477539	22.731127
612.253845	892.004150	14108.228516	3659.037354	20.936638
612.591675	955.718750	13798.757813	3679.517090	21.208363
612.929382	851.044800	13380.062500	3672.690674	22.520887
613.267090	914.759338	12849.866211	3661.312988	23.012394
613.604736	889.728638	12724.711914	3522.506104	22.245720
613.942261	830.565063	12699.681641	3420.107666	21.817484
614.279785	866.973450	12522.191406	3472.444824	22.354549
614.617310	932.963501	12349.250977	3561.189941	23.021729
614.954712	923.861450	12244.577148	3276.750000	20.783922
615.292175	926.136963	12048.882813	3349.566650	21.788052
615.629517	930.687988	12092.117188	3417.832275	22.283384
615.966797	923.861450	12119.423828	3290.403076	21.138210
616.304138	896.555176	11978.341797	3222.137451	20.985624
616.641296	942.065613	12110.321289	3244.892578	20.619396
616.978516	942.065613	11991.994141	3151.596191	19.995880
617.315552	967.096313	12048.882813	3326.811523	21.293636
617.652771	885.177612	12069.362305	3310.882813	21.688707
617.989685	892.004150	11896.422852	3281.301025	21.712158
618.326721	878.351013	11969.239258	3188.004639	20.824783
618.663696	839.667175	12069.362305	3210.759766	21.114487
619.000549	912.483826	12073.913086	3240.341553	20.856268
619.337463	873.799988	12135.352539	3322.260254	21.741764
619.674194	866.973450	11848.636719	3285.852051	22.026524
620.010986	910.208313	11830.432617	3201.657715	20.983538
620.347778	926.136963	11805.402344	3199.382324	20.895210
620.684387	928.412476	12039.780273	3197.106689	20.417776
621.020996	969.371887	11862.290039	3228.964111	20.743683
621.357605	971.647400	11709.830078	3153.871826	20.322102
621.694214	894.279663	11545.992188	3081.055176	20.529800
622.030579	932.963501	11675.697266	3149.320801	20.631224
622.367065	846.493713	11482.278320	3133.392090	21.501926
622.703430	892.004150	11543.716797	3085.606201	20.593889
623.039795	978.473938	11322.991211	3087.881836	20.391554
623.376160	871.524475	11464.074219	3103.810303	21.074112
623.712402	942.065613	11459.522461	3062.851074	20.164431
624.048645	914.759338	11498.207031	3167.524902	21.285746
624.384766	873.799988	11400.359375	3131.116699	21.444012
624.720886	946.616638	11357.124023	3108.361328	20.765026
625.057007	901.106262	11384.430664	3099.259277	20.968092
625.392944	914.759338	11596.053711	3219.861816	21.580742
625.729004	855.595825	11709.830078	3115.187988	20.817612
626.064941	871.524475	11912.351563	3076.504150	19.971146
626.400818	910.208313	11987.443359	3203.933350	20.706657
626.736633	873.799988	12306.016602	3183.453613	20.203024
627.072449	917.034912	12558.599609	3283.576416	20.328381
627.408264	864.697876	12524.466797	3285.852051	20.765028
627.743896	919.310425	12649.620117	3370.046387	20.892338
628.079590	919.310425	12804.355469	3258.545898	19.682175
628.415161	951.167725	12492.609375	3288.127441	20.248421
628.750793	994.402588	12021.576172	3288.127441	20.800659
629.086365	926.136963	12039.780273	3288.127441	21.253071
629.421753	917.034912	11900.973633	3083.330566	19.722395
629.757263	894.279663	11743.962891	3137.943115	20.679529
630.092651	998.953613	11509.583984	3074.228516	19.744532
630.427917	964.820801	11291.133789	3115.187988	20.824154
630.763184	898.830688	11204.664063	3028.718262	20.666817
631.098511	917.034912	11020.347656	2951.350586	20.135136
631.433716	946.616638	10879.264648	2942.248291	20.091637
631.768799	967.096313	10756.386719	2880.809326	19.549047
632.103943	894.279663	10751.835938	2944.523926	20.798706
632.438965	901.106262	10719.978516	2869.431641	20.046350
632.773987	866.973450	10405.957031	2917.217773	21.493322
633.109070	930.687988	10469.670898	2928.595215	20.944658
633.443848	951.167725	10537.936523	2773.859863	19.012581
633.778870	971.647400	10565.243164	2851.227539	19.592030
634.113708	985.300537	10519.732422	2910.391113	20.190931
634.448425	994.402588	10742.733398	2844.401123	18.977592
634.783264	980.749451	10724.529297	2914.942139	19.850536
635.117859	882.902100	10492.426758	2912.666504	21.122423
635.452576	912.483826	10490.151367	2892.187012	20.669991
635.787170	919.310425	10164.750977	2792.063965	20.255968
636.121704	932.963501	10492.426758	2835.298828	19.900023
636.456177	885.177612	10141.996094	2769.308838	20.353983
636.790588	862.422363	10101.037109	2826.196777	21.256155
637.125122	919.310425	9884.862305	2839.849854	21.421318
637.459412	885.177612	10087.383789	2614.573486	18.793274
637.793762	887.453125	9964.505859	2562.236328	18.450737
638.128052	932.963501	9616.350586	2669.185791	19.994759
638.462280	892.004150	9623.177734	2673.737061	20.406569
638.796509	957.994263	9518.503906	2587.267090	19.032427
639.130615	892.004150	9320.533203	2676.012451	21.166306
639.464722	912.483826	9479.819336	2712.420898	21.009296
639.798767	885.177612	9368.319336	2505.348389	19.098711
640.132751	932.963501	9090.706055	2655.532715	21.115759
640.466736	830.565063	9445.686523	2555.409912	20.021133
640.800598	917.034912	9199.930664	2544.032227	19.642857
641.134521	903.381775	9024.715820	2482.593262	19.445223
641.468262	919.310425	8901.836914	2532.654541	20.210947
641.802063	896.555176	8958.725586	2546.307861	20.462885
642.135803	873.799988	8945.072266	2519.001465	20.383421
642.469421	919.310425	8947.347656	2521.277100	19.954649
642.803101	985.300537	8767.582031	2432.531738	18.596491
643.136658	919.310425	8869.980469	2512.175049	20.034346
643.470215	901.106262	8685.663086	2475.766602	20.228004
643.803711	851.044800	8592.366211	2393.847900	19.929455
644.137085	928.412476	8692.489258	2482.593262	20.017588
644.470581	864.697876	8742.550781	2487.144287	20.595034
644.803833	937.514587	8526.375977	2432.531738	19.700150
645.137207	907.932800	8697.040039	2425.705078	19.485830
645.470459	869.248962	8610.570313	2443.909424	20.340977
645.803589	853.320313	8489.967773	2366.541748	19.815258
646.136780	907.932800	8603.744141	2375.643799	19.071554
646.469849	957.994263	8674.285156	2571.338623	20.908289
646.802979	935.239075	8683.387695	2453.011475	19.588840
647.135986	921.585938	8731.172852	2414.327637	19.114222
647.468994	942.065613	8569.611328	2423.429688	19.421240
647.801941	917.034912	8776.683594	2473.491211	19.803129
648.134766	826.014038	8681.112305	2455.286865	20.741598
648.467651	917.034912	8758.479492	2421.154053	19.181660
648.800354	878.351013	8637.876953	2243.663574	17.595308
649.133179	928.412476	8571.886719	2530.379150	20.958620
649.465881	905.657288	8592.366211	2336.959961	18.620487
649.798462	960.269775	8913.214844	2446.184814	18.683834
650.131104	871.524475	8474.039063	2578.165039	22.448370
650.463623	932.963501	8742.550781	2468.940186	19.667833
650.796143	948.892151	8610.570313	2459.837891	19.720819
651.128662	955.718750	8715.245117	2375.643799	18.299120
651.461060	896.555176	8760.754883	2380.194824	18.865742
651.793396	887.453125	8537.753906	2471.215576	20.701963
652.125732	898.830688	8558.233398	2425.705078	19.934641
652.458008	983.024963	8658.356445	2375.643799	18.144089
652.790222	955.718750	8537.753906	2380.194824	18.787516
653.122437	1017.157776	8715.245117	2459.837891	18.740761
653.454529	955.718750	8496.794922	2412.052002	19.312008
653.786621	887.453125	8417.151367	2498.521729	21.396191
654.118713	923.861450	8444.458008	2359.715088	19.092283
654.450623	953.443237	8401.222656	2450.735840	20.103880
654.782654	898.830688	8269.242188	2309.653564	19.141710
655.114502	898.830688	8367.089844	2418.878662	20.353443
655.446350	912.483826	8137.262207	2377.919189	20.283464
655.778198	907.932800	8294.273438	2441.633789	20.764015
656.109863	957.994263	8119.058105	2327.857666	19.129328
656.441650	960.269775	8289.722656	2343.786377	18.876123
656.773254	869.248962	8196.425781	2325.582275	19.875776
657.104919	980.749451	8000.730957	2364.266113	19.708265
657.436462	873.799988	8064.445801	2357.439453	20.632908
657.767944	860.146851	8248.762695	2459.837891	21.650755
658.099548	841.942688	8378.467773	2380.194824	20.410629
658.430908	862.422363	8621.948242	2430.256104	20.205278
658.762268	946.616638	8685.663086	2625.950928	21.699497
659.093628	921.585938	8849.500000	2584.991699	20.981632
659.424927	914.759338	9197.655273	2669.185791	21.181318
659.756226	894.279663	9538.983398	2660.083740	20.426426
660.087341	930.687988	9552.636719	2735.176025	20.929003
660.418518	935.239075	9602.698242	2764.757813	21.107903
660.749573	905.657288	9736.953125	2716.971924	20.510180
661.080627	898.830688	9498.023438	2630.501953	20.137604
661.411621	992.127075	9088.429688	2644.155273	20.404724
661.742554	923.861450	9031.541992	2603.195801	20.712883
662.073547	876.075500	8890.459961	2566.787354	21.095968
662.404297	932.963501	8753.928711	2500.797363	20.046553
662.735229	901.106262	8367.089844	2455.286865	20.816824
663.065979	926.136963	8373.916992	2496.246338	21.081575
663.396667	878.351013	8269.242188	2437.082764	21.089903
663.727417	996.678101	7857.373535	2443.909424	21.094528
664.057922	937.514587	7925.639160	2366.541748	20.449366
664.388611	903.381775	7766.352539	2355.164063	21.153845
664.719116	939.790100	7739.046387	2409.776611	21.619814
665.049622	823.738525	7450.055176	2357.439453	23.145603
665.380005	873.799988	7566.106445	2398.398926	22.781366
665.710388	942.065613	7616.167969	2164.020264	18.308897
666.040771	912.483826	7468.259277	2332.408936	21.659147
666.371033	848.769287	7611.617188	2289.173828	21.298788
666.701294	889.728638	7511.494141	2357.439453	22.164948
667.031555	948.892151	7390.891602	2330.133301	21.441187
667.361633	896.555176	7616.167969	2439.358398	22.959703
667.691772	957.994263	7661.678711	2384.745850	21.283096
668.021790	898.830688	7538.800293	2325.582275	21.487320
668.351807	926.136963	7361.309570	2336.959961	21.923622
668.681763	942.065613	7461.432617	2352.888428	21.640486
669.011719	898.830688	7582.035156	2453.011475	23.255024
669.341614	873.799988	7641.198730	2305.102539	21.149965
669.671387	892.004150	7586.586426	2416.603027	22.773623
670.001221	939.790100	7684.433594	2300.551514	20.175440
670.330933	919.310425	7641.198730	2318.755615	20.819227
670.660583	901.106262	7529.698242	2364.266113	22.073465
670.990173	903.381775	7493.290039	2307.378174	21.305248
671.319763	914.759338	7402.269043	2264.143311	20.799723
671.649292	932.963501	7208.850098	2293.724854	21.682377
671.978821	921.585938	7283.941895	2316.480225	21.924179
672.308289	919.310425	7281.666504	2311.929199	21.888412
672.637695	969.371887	7274.839844	2334.684326	21.652834
672.966980	930.687988	7047.288086	2225.459229	21.168152
673.296326	873.799988	7138.308594	2198.153076	21.140574
673.625610	930.687988	7249.809082	2257.316650	20.993879
673.954773	919.310425	7170.166016	2277.796387	21.732801
674.283936	860.146851	6979.022461	2241.387939	22.573446
674.613037	976.198425	7133.757813	2387.021240	22.912045
674.942078	876.075500	7074.594238	2257.316650	22.283409
675.271118	894.279663	7063.216797	2255.041016	22.058279
675.600098	901.106262	6815.184570	2245.938965	22.739517
675.928955	948.892151	6899.378906	2307.378174	22.829830
676.257813	971.647400	6890.276855	2280.071777	22.106880
676.586670	903.381775	7042.736816	2259.592041	22.090435
676.915466	932.963501	6849.317383	2236.836914	22.038462
677.244141	930.687988	6837.939941	2177.673340	21.109398
677.572876	910.208313	6885.726074	2207.255127	21.706017
677.901489	819.187500	6876.624023	2302.827148	24.492863
678.230042	887.453125	6951.715820	2307.378174	23.414637
678.558594	937.514587	6992.675293	2245.938965	21.608416
678.887085	944.341125	7013.155273	2325.582275	22.759657
679.215515	917.034912	6899.378906	2357.439453	24.077595
679.543945	912.483826	7047.288086	2473.491211	25.445105
679.872253	903.381775	7220.227539	2430.256104	24.171467
680.200562	971.647400	7324.901367	2537.205811	24.641834
680.528809	930.687988	7452.330566	2500.797363	24.075367
680.856995	946.616638	7418.197754	2493.970703	23.909985
681.185120	907.932800	7497.840820	2580.440674	25.379835
681.513306	846.493713	7393.166992	2478.042236	24.921797
681.841309	942.065613	7688.984863	2548.583252	23.811127
682.169373	873.799988	7513.769531	2587.267090	25.805344
682.497314	960.269775	7427.299805	2503.072998	23.856440
682.825134	946.616638	7384.064941	2468.940186	23.647934
683.153076	946.616638	7434.126465	2571.338623	25.043846
683.480896	919.310425	7154.237305	2432.531738	24.270073
683.808655	967.096313	7122.379883	2400.674561	23.290205
684.136414	848.769287	7149.686523	2439.358398	25.243773
684.464050	894.279663	6903.930176	2375.643799	24.649755
684.791626	903.381775	6662.725098	2307.378174	24.377716
685.119263	921.585938	6778.776367	2409.776611	25.407927
685.446838	912.483826	6642.245117	2311.929199	24.424147
685.774292	976.198425	6517.091797	2384.745850	25.420942
686.101685	882.902100	6544.397949	2327.857666	25.522505
686.429077	987.576050	6503.438477	2346.062012	24.628714
686.756348	930.687988	6444.274902	2364.266113	26.000826
687.083679	942.065613	6291.814941	2239.112549	24.245003
687.410950	880.626526	6278.162109	2264.143311	25.632380
687.738159	889.728638	6462.479004	2261.867676	24.622295
688.065308	942.065613	6589.908203	2352.888428	24.979853
688.392395	969.371887	6726.439453	2361.990479	24.189722
688.719421	951.167725	6605.836914	2352.888428	24.788731
689.046448	980.749451	6599.010254	2336.959961	24.139330
689.373413	983.024963	6510.265137	2257.316650	23.054756
689.700317	953.443237	6539.846680	2289.173828	23.910385
690.027100	985.300537	6426.070801	2223.183838	22.751986
690.353943	973.922913	6296.366211	2293.724854	24.796919
690.680725	903.381775	6312.294922	2270.969727	25.283968
691.007446	894.279663	6264.508789	2248.214600	25.211866
691.334106	912.483826	6114.324219	2252.765625	25.765530
691.660645	926.136963	5984.619629	2266.418701	26.495728
691.987244	889.728638	6018.752441	2223.183838	25.998226
692.313721	962.545288	5775.271973	2173.122314	25.153664
692.640259	935.239075	5943.660156	2134.438477	23.943665
692.966675	944.341125	5768.445313	2214.081787	26.320757
693.293030	1026.259888	5759.343262	2136.714111	23.461538
693.619324	901.106262	5652.393555	2098.030273	25.191576
693.945618	898.830688	5634.189453	2152.642578	26.477654
694.271851	930.687988	5761.618652	2173.122314	25.718323
694.598083	928.412476	5615.985352	2095.754639	24.902912
694.924194	930.687988	5609.158691	2116.234375	25.340467
695.250244	1005.780212	5549.995117	2054.795166	23.084623
695.576294	964.820801	5561.373047	2202.704102	26.930691
695.902283	919.310425	5547.719727	2100.305664	25.516224
696.228210	837.391663	5552.270996	2129.887451	27.413126
696.554138	932.963501	5609.158691	2179.948975	26.666668
696.879944	846.493713	5772.996094	2161.744873	26.697464
697.205750	878.351013	5861.741699	2182.224365	26.164381
697.531433	882.902100	5832.159668	2177.673340	26.160917
697.857178	923.861450	5984.619629	2154.918213	24.325539
698.182739	930.687988	6039.232422	2257.316650	25.968819
698.508423	882.902100	6307.743652	2412.052002	28.187918
698.833984	894.279663	6462.479004	2523.552490	29.260319
699.159485	880.626526	6783.327637	2459.837891	26.754047
699.484924	935.239075	7108.727051	2514.450439	25.580538
699.810303	944.341125	7063.216797	2539.481201	26.069172
700.135681	932.963501	6994.951172	2537.205811	26.463964
700.460999	942.065613	7242.982910	2644.155273	27.013361
700.786255	848.769287	6776.500977	2441.633789	26.871401
701.111450	903.381775	6799.256348	2489.419678	26.900806
701.436646	917.034912	6583.081543	2405.225586	26.265060
701.761719	866.973450	6141.630859	2293.724854	27.049179
702.086792	882.902100	5975.517578	2243.663574	26.720289
702.411865	873.799988	5909.527344	2127.612061	24.898329
702.736816	857.871338	5804.853516	2227.734863	27.690891
703.061646	880.626526	5656.944824	2104.856689	25.631252
703.386536	814.636475	5529.515625	2141.265137	28.137068
703.711365	907.932800	5372.504395	2082.101563	26.299694
704.036194	905.657288	5306.514648	2034.315552	25.646326
704.360901	878.351013	5103.993164	2052.519775	27.786753
704.685547	844.218201	5088.064453	2093.479248	29.437000
705.010132	907.932800	5078.962402	2018.386963	26.623020
705.334717	914.759338	5108.544434	1997.907227	25.827454
705.659302	960.269775	4830.930664	1979.703125	26.337450
705.983765	901.106262	5108.544434	1956.947876	25.094643
706.308228	912.483826	4972.013184	2022.937988	27.354258
706.632568	919.310425	4949.257813	2109.407715	29.531336
706.956909	880.626526	4810.451172	2061.621826	30.052113
707.281189	978.473938	4883.267578	2054.795166	27.564102
707.605408	957.994263	4956.084473	2041.142212	27.091633
707.929626	889.728638	4869.614746	1963.774414	26.986847
708.253784	969.371887	4880.992188	1915.988525	24.200115
708.577820	983.024963	4851.410156	1970.601074	25.529415
708.901855	903.381775	4997.043457	2018.386963	27.237354
709.225830	914.759338	4969.737305	1941.019287	25.308645
709.549805	880.626526	4997.043457	2138.989502	30.569378
709.873718	926.136963	4985.666016	1963.774414	25.560537
710.197510	960.269775	4899.196289	1972.876587	25.707685
710.521362	955.718750	5049.380859	1984.254150	25.125069
710.845093	905.657288	5092.615723	2020.662476	26.630432
711.168701	892.004150	5154.054688	1956.947876	24.986650
711.492432	903.381775	5067.584961	2034.315552	27.158470
711.816040	887.453125	5308.790039	2145.816162	28.461143
712.139587	923.861450	5349.749512	2072.999512	25.964010
712.463074	930.687988	5295.136719	2084.376953	26.433784
712.786499	892.004150	5324.718750	2057.070801	26.283365
713.109924	871.524475	5281.483887	2007.009399	25.748192
713.433350	917.034912	5172.258789	2125.336426	28.395723
713.756592	882.902100	5110.819824	2063.897461	27.933262
714.079834	896.555176	5115.370605	2063.897461	27.669907
714.403015	880.626526	4940.155762	2022.937988	28.139013
714.726196	985.300537	4965.186523	1984.254150	25.100056
715.049255	926.136963	5049.380859	2020.662476	26.545252
715.372375	980.749451	4810.451172	1956.947876	25.490194
715.695435	998.953613	4865.063477	1897.784302	23.248970
716.018311	826.014038	4985.666016	1968.325439	27.461706
716.341248	935.239075	4951.533203	1979.703125	26.005667
716.664063	976.198425	4985.666016	1886.406738	22.701477
716.987000	948.892151	4962.910645	1975.152100	25.566898
717.309692	837.391663	5008.421387	1981.978638	27.441351
717.632385	955.718750	4794.522461	2007.009399	27.385893
717.955078	985.300537	4744.460938	1943.294800	25.484261
718.277649	987.576050	4865.063477	1843.171875	22.065729
718.600220	928.412476	4703.501465	1884.131226	25.316458
718.922791	887.453125	4530.562012	1824.967651	25.733915
719.245300	905.657288	4396.306152	1845.447388	26.923077
719.567688	880.626526	4551.041504	1824.967651	25.728456
719.890015	942.065613	4389.479492	1788.559326	24.554457
720.212341	932.963501	4423.612305	1840.896362	26.010431
720.534607	880.626526	4362.173340	1765.804199	25.424839
720.856873	887.453125	4141.447754	1786.283813	27.622377
721.179016	923.861450	4139.172363	1738.497925	25.336164
721.501160	889.728638	4025.396240	1738.497925	27.068218
721.823242	926.136963	4066.355713	1663.405762	23.478262
722.145264	846.493713	4057.253662	1677.058838	25.868177
722.467224	917.034912	4000.365479	1720.293701	26.051661
722.789185	969.371887	4016.294189	1733.946899	25.093353
723.111023	898.830688	3941.202148	1749.875488	27.973072
723.432861	889.728638	4002.641113	1672.507813	25.146198
723.754578	914.759338	4041.324951	1683.885376	24.599709
724.076294	937.514587	3975.334961	1720.293701	25.767788
724.397949	912.483826	3861.558838	1647.477051	24.922840
724.719666	892.004150	4018.569824	1727.120239	26.710333
725.041260	898.830688	3916.171387	1695.262939	26.395170
725.362732	862.422363	4036.773926	1624.721802	24.014336
725.684265	919.310425	4014.018799	1718.018188	25.808821
726.005676	942.065613	4014.018799	1663.405762	23.481483
726.327087	882.902100	4093.661865	1806.763550	28.773920
726.648438	932.963501	3963.957275	1720.293701	25.975977
726.969666	882.902100	3943.477539	1633.823975	24.535316
727.290894	882.902100	4221.091309	1631.548462	22.426720
727.612061	919.310425	4041.324951	1663.405762	23.833820
727.933228	894.279663	4084.559814	1697.538574	25.178318
728.254395	903.381775	4180.131836	1736.222412	25.416668
728.575378	869.248962	4232.468750	1713.467163	25.101488
728.896301	898.830688	4209.713379	1788.559326	26.872852
729.217285	917.034912	4227.917480	1738.497925	24.810999
729.538147	964.820801	4248.397461	1754.426514	24.047123
729.858948	894.279663	4248.397461	1731.671387	24.966080
730.179810	892.004150	4246.121582	1818.141113	27.611942
730.500549	885.177612	4207.437988	1727.120239	25.342464
730.821228	903.381775	4109.590332	1765.804199	26.898514
731.141846	930.687988	4166.478516	1692.987427	23.558369
731.462402	914.759338	4120.968262	1784.008301	27.111425
731.782898	937.514587	4223.366699	1781.732788	25.692520
732.103455	960.269775	4150.549805	1877.304688	28.744652
732.423889	901.106262	4412.234863	1706.640625	22.942320
732.744263	939.790100	4291.632324	1793.110352	25.458246
733.064636	937.514587	4325.765137	1843.171875	26.729349
733.384888	914.759338	4321.213867	1809.039063	26.252506
733.705200	862.422363	4161.927734	1679.334351	24.758619
734.025330	882.902100	4193.784668	1654.303589	23.298969
734.345520	971.647400	4307.561035	1695.262939	21.691675
734.665527	923.861450	4132.345703	1699.814087	24.184399
734.985596	917.034912	4082.284424	1690.711914	24.442844
735.305542	887.453125	4093.661865	1720.293701	25.975868
735.625549	841.942688	4082.284424	1729.395752	27.387638
735.945435	917.034912	4014.018799	1708.916138	25.569433
736.265259	903.381775	3932.099854	1774.906250	28.775358
736.585083	853.320313	3868.385254	1667.956787	27.018869
736.904785	914.759338	3875.211914	1736.222412	27.747889
737.224426	887.453125	3977.610352	1647.477051	24.594992
737.544128	912.483826	3888.864990	1595.140137	22.935783
737.863708	912.483826	3861.558838	1702.089600	26.774693
738.183289	978.473938	3907.069336	1642.926025	22.688421
738.502808	873.799988	3850.181152	1692.987427	27.522936
738.822205	894.279663	3900.242676	1679.334351	26.116579
739.141541	889.728638	3936.650879	1699.814087	26.587008
739.460938	862.422363	3934.375488	1629.272949	24.962965
739.780212	892.004150	4023.120850	1743.048950	27.180233
740.099426	830.565063	4020.845215	1674.783325	26.462198
740.418640	901.106262	3941.202148	1749.875488	27.919159
740.737793	846.493713	3950.304199	1738.497925	28.739002
741.056885	878.351013	3948.028564	1724.844727	27.575981
741.375977	898.830688	3770.538086	1806.763550	31.616482
741.694946	926.136963	3884.313965	1638.375000	24.076923
742.013855	923.861450	3697.721191	1706.640625	28.219852
742.332703	896.555176	3699.996826	1645.201538	26.704546
742.651550	928.412476	3643.108887	1688.436401	27.996647
742.970398	980.749451	3761.435791	1620.170776	22.995090
743.289124	914.759338	3561.189941	1583.762451	25.279449
743.607788	944.341125	3661.312988	1570.109375	23.031826
743.926453	905.657288	3631.731201	1590.588989	25.125206
744.245056	985.300537	3554.363525	1686.160889	27.280777
744.563599	989.851563	3611.251465	1617.895264	23.958332
744.882141	928.412476	3561.189941	1624.721802	26.447710
745.200500	851.044800	3465.618164	1574.660400	27.676241
745.518860	892.004150	3570.292236	1581.486938	25.743414
745.837219	846.493713	3495.199951	1661.130127	30.756012
746.155518	944.341125	3479.271240	1595.140137	25.673252
746.473755	926.136963	3492.924316	1620.170776	27.039007
746.791992	880.626526	3342.739990	1499.568237	25.138634
747.110107	898.830688	3381.423828	1608.793213	28.597618
747.428162	887.453125	3486.097900	1570.109375	26.269703
747.746216	910.208313	3390.525879	1545.078613	25.596331
748.064148	905.657288	3522.506104	1583.762451	25.913042
748.382080	955.718750	3420.107666	1556.456177	24.376730
748.700073	926.136963	3483.822266	1561.007324	24.822067
749.017822	896.555176	3329.086914	1583.762451	28.250702
749.335632	876.075500	3449.689453	1554.180664	26.348364
749.653320	946.616638	3552.087891	1622.446289	25.938866
749.971008	907.932800	3429.209961	1604.242188	27.617329
750.288696	889.728638	3376.872803	1661.130127	31.015553
750.606262	910.208313	3388.250488	1626.997314	28.925617
750.923828	846.493713	3458.791504	1567.833862	27.613243
751.241272	889.728638	3508.853027	1599.691162	27.106865
751.558716	869.248962	3561.189941	1697.538574	30.769234
751.876038	898.830688	3481.546875	1626.997314	28.193829
752.193481	978.473938	3483.822266	1617.895264	25.522251
752.510681	871.524475	3401.903564	1586.037964	28.237408
752.827942	987.576050	3367.770752	1615.619751	26.386230
753.145081	901.106262	3408.730225	1620.170776	28.675133
753.462219	917.034912	3319.984863	1576.935913	27.462120
753.779297	855.595825	3308.607178	1713.467163	34.972172
754.096375	914.759338	3253.994629	1599.691162	29.280159
754.413330	926.136963	3347.291016	1672.507813	30.827070
754.730286	901.106262	3420.107666	1563.282837	26.287264
755.047119	878.351013	3142.494141	1599.691162	31.859301
755.363892	989.851563	3333.637939	1520.047852	22.621357
755.680725	928.412476	3370.046387	1595.140137	27.306620
755.997498	921.585938	3238.066162	1563.282837	27.701376
756.314148	866.973450	3279.025391	1572.384888	29.245283
756.630737	901.106262	3156.147461	1551.905151	28.859734
756.947327	960.269775	3181.177979	1526.874512	25.512299
757.263855	935.239075	3281.301025	1522.323364	25.024244
757.580261	926.136963	3213.035400	1620.170776	30.348257
757.896729	910.208313	3308.607178	1581.486938	27.988615
758.213074	953.443237	3310.882813	1565.558350	25.965252
758.529419	887.453125	3436.036377	1524.598877	24.999998
758.845642	946.616638	3433.760986	1629.272949	27.447395
759.161865	942.065613	3456.516113	1597.415649	26.063351
759.478149	885.177612	3476.995850	1606.517700	27.831429
759.794189	837.391663	3372.321777	1608.793213	30.430880
760.110229	905.657288	3447.414063	1640.650513	28.916740
760.426270	926.136963	3411.005615	1586.037964	26.556776
760.742249	926.136963	3399.628174	1665.681274	29.898806
761.058105	921.585938	3438.312012	1524.598877	23.960213
761.374023	944.341125	3372.321777	1563.282837	25.492035
761.689819	923.861450	3413.281250	1572.384888	26.051188
762.005554	921.585938	3449.689453	1556.456177	25.112509
762.321289	885.177612	3431.485352	1667.956787	30.741735
762.636902	921.585938	3399.628174	1649.752563	29.384754
762.952515	948.892151	3517.955078	1670.232300	28.077948
763.268127	964.820801	3461.067139	1654.303589	27.620783
763.583618	926.136963	3629.455566	1681.609863	27.946129
763.899048	919.310425	4107.314941	1888.682251	30.406853
764.214478	942.065613	4485.051270	1863.651489	26.011562
764.529785	987.576050	4778.593750	2004.733887	26.830734
764.845093	905.657288	4981.115234	2025.213501	27.470682
765.160400	901.106262	4824.104004	2038.866699	29.002323
765.475586	987.576050	4635.235840	1988.805176	27.448534
765.790771	866.973450	4462.296387	1950.121338	30.126583
766.105835	914.759338	4268.876953	2013.835938	32.767982
766.420837	939.790100	3988.988037	1779.457275	27.537312
766.735840	885.177612	3982.161377	1779.457275	28.875826
767.050842	787.330200	3797.844238	1838.620850	34.920635
767.365662	887.453125	3715.925537	1711.191650	29.123089
767.680542	846.493713	3659.037354	1672.507813	29.368935
767.995300	953.443237	3602.149414	1661.130127	26.718212
768.309998	892.004150	3408.730225	1647.477051	30.018082
768.624817	866.973450	3467.893799	1626.997314	29.221342
768.939392	939.790100	3374.597412	1620.170776	27.943922
769.254028	935.239075	3240.341553	1570.109375	27.541954
769.568481	957.994263	3345.015625	1542.803101	24.499521
769.882935	944.341125	3222.137451	1531.425537	25.774227
770.197388	919.310425	3188.004639	1535.976563	27.181543
770.511841	923.861450	3147.045166	1529.150024	27.226208
770.826172	1003.504700	3065.126465	1588.313477	28.366444
771.140442	967.096313	3126.565674	1563.282837	27.608011
771.454651	930.687988	3071.953125	1481.364014	25.717321
771.768860	939.790100	3026.442627	1586.037964	30.970554
772.082886	837.391663	2955.901611	1431.302612	28.034370
772.397034	917.034912	3065.126465	1510.945801	27.648304
772.711060	889.728638	3069.677490	1490.466064	27.557411
773.025024	889.728638	2960.452637	1545.078613	31.648348
773.338928	1030.810913	2969.554688	1504.119263	24.413147
773.652771	864.697876	3044.646729	1415.373901	25.260962
773.966614	926.136963	2980.932129	1483.639526	27.131783
774.280457	910.208313	2933.146240	1442.680176	26.321709
774.594116	914.759338	2894.462402	1422.200562	25.632187
774.907776	853.320313	2953.625977	1481.364014	29.902491
775.221375	880.626526	2853.503174	1501.843750	31.487888
775.534912	910.208313	2817.094727	1522.323364	32.100235
775.848450	898.830688	2899.013428	1449.506714	27.531286
776.161926	882.902100	2855.778564	1460.884399	29.296427
776.475342	860.146851	2823.921387	1463.159912	30.706839
776.788696	905.657288	2807.992676	1408.547363	26.435404
777.101990	892.004150	2817.094727	1454.057739	29.196215
777.415283	901.106262	2848.952148	1392.618774	25.233644
777.728516	887.453125	2805.717041	1490.466064	31.435349
778.041626	835.116150	2705.594238	1367.588013	28.467154
778.354736	910.208313	2844.401123	1460.884399	28.470589
778.667725	864.697876	2714.696289	1469.986450	32.718330
778.980774	935.239075	2764.757813	1501.843750	30.970148
779.293640	823.738525	2785.237549	1422.200562	30.510443
779.606567	930.687988	2694.216553	1465.435425	30.322584
779.919434	951.167725	2755.655762	1447.231201	27.490538
780.232239	948.892151	2607.746826	1383.516602	26.200272
780.544983	907.932800	2698.767578	1367.588013	25.667093
780.857666	937.514587	2771.584229	1356.210449	22.828789
781.170227	866.973450	2712.420898	1365.312500	27.003696
781.482849	912.483826	2680.563477	1431.302612	29.343634
781.795410	976.198425	2687.390137	1315.250977	19.813828
782.107910	903.381775	2719.247314	1438.129150	29.448624
782.420288	921.585938	2666.910400	1406.271851	27.770533
782.732666	826.014038	2591.818115	1410.822876	33.118557
783.044983	876.075500	2639.604248	1406.271851	30.064512
783.357300	889.728638	2564.511963	1356.210449	27.853264
783.669495	905.657288	2528.103516	1338.006226	26.647966
783.981689	901.106262	2496.246338	1424.476074	32.810272
784.293762	841.942688	2443.909424	1447.231201	37.784084
784.605835	960.269775	2512.175049	1390.343262	27.712612
784.917908	957.994263	2562.236328	1333.455200	23.404257
785.229858	955.718750	2425.705078	1299.322388	23.374615
785.541748	930.687988	2503.072998	1372.139038	28.075253
785.853577	905.657288	2487.144287	1353.934937	28.345325
786.165405	860.146851	2478.042236	1340.281738	29.676510
786.477173	921.585938	2430.256104	1303.873413	25.339367
786.788879	967.096313	2448.460449	1274.291626	20.737326
787.100525	930.687988	2418.878662	1262.914063	22.324160
787.412109	928.412476	2398.398926	1276.567139	23.684210
787.723694	885.177612	2384.745850	1303.873413	27.921091
788.035156	923.861450	2387.021240	1397.169800	32.348370
788.346558	964.820801	2530.379150	1335.730713	23.691862
788.658081	1010.331238	2571.338623	1431.302612	26.967930
788.969360	939.790100	2566.787354	1417.649414	29.370626
789.280640	932.963501	2612.297852	1372.139038	26.151762
789.591919	866.973450	2660.083740	1444.955688	32.233501
789.903076	928.412476	2721.522949	1479.088501	30.710657
790.214172	803.258850	2726.073975	1369.863525	29.467453
790.525269	960.269775	2507.624023	1406.271851	28.823528
790.836365	928.412476	2562.236328	1392.618774	28.412262
791.147339	930.687988	2544.032227	1383.516602	28.067699
791.458191	864.697876	2464.388916	1328.904175	29.018497
791.769104	887.453125	2384.745850	1390.343262	33.586628
792.079895	917.034912	2448.460449	1344.832764	27.934616
792.390686	878.351013	2346.062012	1322.077637	30.232563
792.701416	919.310425	2366.541748	1303.873413	26.572323
793.012085	926.136963	2371.092773	1287.944824	25.039371
793.322693	853.320313	2259.592041	1267.465088	29.449841
793.633240	892.004150	2311.929199	1328.904175	30.769232
793.943787	907.932800	2270.969727	1256.087524	25.542576
794.254272	848.769287	2416.603027	1306.148926	29.172712
794.564636	828.289551	2325.582275	1267.465088	29.331308
794.875000	962.545288	2314.204590	1287.944824	24.074080
795.185303	873.799988	2321.031250	1344.832764	32.547169
795.495544	894.279663	2346.062012	1292.495850	27.429468
795.805786	903.381775	2266.418701	1326.628662	31.051756
796.115906	932.963501	2307.378174	1294.771362	26.324505
796.426025	839.667175	2414.327637	1331.179688	31.213875
796.736023	923.861450	2387.021240	1276.567139	24.105753
797.045959	973.922913	2361.990479	1292.495850	22.950823
797.355896	964.820801	2405.225586	1340.281738	26.066349
797.665833	939.790100	2398.398926	1401.720825	31.669266
797.975708	910.208313	2387.021240	1224.230225	21.263485
798.285461	910.208313	2439.358398	1267.465088	23.363092
798.595154	857.871338	2400.674561	1335.730713	30.973450
798.904846	869.248962	2250.489990	1349.383789	34.761120
799.214478	907.932800	2241.387939	1315.250977	30.546074
799.524109	878.351013	2361.990479	1374.414551	33.435585
799.833557	835.116150	2305.102539	1285.669312	30.650160
800.143005	880.626526	2179.948975	1303.873413	32.574429
800.452393	898.830688	2289.173828	1397.169800	35.842888
800.761780	957.994263	2198.153076	1310.699951	28.440365
801.071106	942.065613	2234.561523	1308.424438	28.345068
801.380371	928.412476	2113.958740	1285.669312	30.134365
801.689575	885.177612	2061.621826	1297.046875	35.009674
801.998718	896.555176	2189.051025	1303.873413	31.514084
802.307800	832.840637	2168.571289	1324.353149	36.797276
802.616882	944.341125	2145.816162	1253.812012	25.757578
802.925903	937.514587	2164.020264	1285.669312	28.385906
803.234863	946.616638	2207.255127	1267.465088	25.451267
803.543701	903.381775	2173.122314	1283.393677	29.928312
803.852539	894.279663	2145.816162	1285.669312	31.272732
804.161316	907.932800	2041.142212	1272.016113	32.128510
804.470032	1014.882263	2127.612061	1249.260864	21.063389
804.778809	898.830688	2079.825928	1258.363037	30.443167
805.087341	878.351013	2132.163086	1269.740601	31.215971
805.395935	935.239075	2113.958740	1283.393677	29.536674
805.704468	944.341125	2150.367188	1347.108276	33.396221
806.012939	912.483826	2109.407715	1269.740601	29.847912
806.321350	896.555176	2173.122314	1340.281738	34.759361
806.629761	919.310425	2200.428711	1331.179688	32.149200
806.938049	926.136963	2236.836914	1231.056763	23.263891
807.246277	955.718750	2186.775391	1224.230225	21.811464
807.554504	880.626526	2191.326416	1246.985352	27.951387
807.862671	917.034912	2150.367188	1319.802124	32.656830
808.170715	896.555176	2152.642578	1272.016113	29.891306
808.478821	848.769287	2118.509766	1267.465088	32.974911
808.786804	905.657288	2093.479248	1210.577026	25.670490
809.094727	841.942688	2102.581299	1258.363037	33.032490
809.402649	928.412476	2116.234375	1283.393677	29.885054
809.710510	905.657288	2152.642578	1249.260864	27.554741
810.018311	855.595825	2082.101563	1231.056763	30.612246
810.326050	907.932800	1952.396851	1237.883301	31.590410
810.633667	853.320313	2054.795166	1253.812012	33.333340
810.941345	901.106262	2054.795166	1285.669312	33.333340
811.248901	944.341125	2161.744873	1262.914063	26.168222
811.556396	901.106262	1963.774414	1246.985352	32.548172
811.863892	964.820801	2043.417725	1258.363037	27.215193
812.171326	892.004150	2027.489014	1155.964600	23.246496
812.478699	892.004150	2013.835938	1244.709839	31.440159
812.786011	955.718750	2032.040039	1287.944824	30.866812
813.093262	946.616638	2082.101563	1176.444214	20.240479
813.400391	848.769287	2032.040039	1217.403687	31.153851
813.707642	878.351013	2027.489014	1142.311401	22.970297
814.014709	892.004150	1959.223389	1221.954712	30.916849
814.321716	837.391663	1936.468262	1226.505737	35.403725
814.628723	851.044800	1902.335449	1196.923950	32.900429
814.935669	907.932800	1934.192627	1142.311401	22.838137
815.242554	901.106262	1995.631714	1201.474976	27.442827
815.549438	880.626526	1988.805176	1176.444214	26.694042
815.856201	887.453125	2004.733887	1267.465088	34.012218
816.162964	914.759338	1915.988525	1215.128052	29.999996
816.469604	898.830688	1961.498901	1224.230225	30.620991
816.776184	930.687988	1950.121338	1194.648438	25.892860
817.082825	919.310425	2011.560425	1210.577026	26.666660
817.389343	923.861450	1934.192627	1178.719727	25.225222
817.695801	917.034912	1966.049927	1169.617676	24.078089
818.002197	935.239075	2041.142212	1231.056763	26.748970
818.308533	903.381775	2043.417725	1276.567139	32.734528
818.614868	944.341125	1988.805176	1328.904175	36.819172
818.921143	887.453125	1993.356201	1244.709839	32.304523
819.227356	939.790100	2018.386963	1235.607788	27.426157
819.533447	930.687988	2043.417725	1262.914063	29.856852
819.839539	939.790100	2123.060791	1153.689087	18.076927
820.145569	892.004150	2132.163086	1308.424438	33.577976
820.451538	864.697876	2223.183838	1299.322388	31.993301
820.757568	898.830688	2289.173828	1360.761475	33.224228
821.063416	917.034912	2539.481201	1451.782227	32.959324
821.369263	905.657288	2639.604248	1426.751587	30.052492
821.675049	871.524475	2735.176025	1485.915039	32.967030
821.980713	907.932800	2919.493164	1483.639526	28.619909
822.286438	960.269775	3219.861816	1611.068726	28.801613
822.592102	860.146851	4105.039551	1993.356201	34.922863
822.897583	894.279663	6223.549316	2607.746826	32.152008
823.203125	894.279663	8628.774414	3304.056152	31.156223
823.508545	951.167725	10360.446289	3909.344727	31.438936
823.813965	921.585938	10524.284180	3872.936523	30.734596
824.119263	935.239075	9548.084961	3520.230713	30.013212
824.424622	864.697876	8175.946289	3238.066162	32.461872
824.729858	951.167725	6922.134277	2751.104736	30.144817
825.035095	998.953613	5955.038086	2546.307861	31.221306
825.340149	810.085388	5340.647461	2332.408936	33.601208
825.645264	907.932800	4760.389648	2159.469238	32.486710
825.950256	957.994263	4268.876953	2007.009399	31.683849
826.255310	869.248962	4009.467773	1943.294800	34.202900
826.560242	885.177612	3968.508301	1897.784302	32.841328
826.865112	885.177612	3765.986816	1704.365112	28.436022
827.169922	860.146851	3588.496338	1770.355225	33.361134
827.474670	880.626526	3718.200928	1834.069824	33.600643
827.779419	960.269775	4145.999023	1977.427612	31.928572
828.084045	928.412476	4805.899902	2016.111450	28.051645
828.388672	912.483826	5169.983398	2239.112549	31.159807
828.693176	926.136963	4949.257813	2175.397949	31.052038
828.997681	942.065613	4512.357910	2095.754639	32.313572
829.302124	841.942688	3952.579590	1845.447388	32.260426
829.606567	930.687988	3474.720215	1749.875488	32.200359
829.910828	951.167725	3206.208740	1649.752563	30.978809
830.215149	951.167725	2908.115479	1529.150024	29.534887
830.519348	892.004150	2769.308838	1438.129150	29.090910
830.823547	932.963501	2662.359375	1426.751587	28.552635
831.127686	937.514587	2537.205811	1449.506714	32.005684
831.431763	830.565063	2409.776611	1399.445313	36.023056
831.735779	919.310425	2332.408936	1324.353149	28.663446
832.039734	912.483826	2293.724854	1353.934937	31.960470
832.343628	855.595825	2207.255127	1367.588013	37.878792
832.647461	819.187500	2102.581299	1324.353149	39.361702
832.951233	880.626526	2107.132324	1310.699951	35.064930
833.255127	873.799988	2150.367188	1278.842651	31.729053
833.558777	921.585938	2134.438477	1299.322388	31.144466
833.862366	921.585938	2305.102539	1333.455200	29.769737
834.165955	951.167725	2596.369141	1454.057739	30.567080
834.469482	885.177612	3094.708252	1581.486938	31.513901
834.773010	912.483826	3376.872803	1681.609863	31.209604
835.076416	901.106262	3522.506104	1747.599976	32.291668
835.379822	914.759338	3536.159424	1647.477051	27.951387
835.683105	923.861450	3206.208740	1654.303589	32.003990
835.986389	917.034912	2996.860840	1631.548462	34.354488
836.289612	917.034912	2676.012451	1545.078613	35.705044
836.592773	896.555176	2496.246338	1394.894287	31.152208
836.895874	996.678101	2439.358398	1365.312500	25.552050
837.198914	937.514587	2407.500977	1322.077637	26.160995
837.501892	937.514587	2284.622803	1283.393677	25.675673
837.804871	901.106262	2120.785400	1312.975464	33.768650
838.107666	855.595825	1997.907227	1290.220337	38.047813
838.410583	835.116150	1870.478149	1269.740601	41.978016
838.713379	910.208313	1920.539551	1171.893188	25.900900
839.016052	960.269775	1895.508789	1208.301514	26.520679
839.318787	848.769287	1813.590088	1160.515625	32.311321
839.621338	964.820801	1772.630737	1237.883301	33.802814
839.923889	866.973450	1777.181763	1158.240112	32.000000
840.226440	912.483826	1729.395752	1180.995239	32.869076
840.528931	946.616638	1900.059814	1226.505737	29.355614
840.831299	946.616638	2043.417725	1206.026001	23.651451
841.133606	873.799988	1956.947876	1219.679199	31.932775
841.435913	942.065613	1984.254150	1192.372925	24.017471
841.738220	955.718750	1966.049927	1206.026001	24.774773
842.040405	901.106262	1852.273926	1260.638550	37.799046
842.342529	853.320313	1820.416626	1219.679199	37.882359
842.644592	898.830688	1729.395752	1160.515625	31.506855
842.946594	880.626526	1690.711914	1051.290649	21.067425
843.248596	942.065613	1636.099487	1165.066650	32.131145
843.550598	962.545288	1697.538574	1199.199463	32.198139
843.852478	826.014038	1638.375000	1099.076538	33.613445
844.154236	828.289551	1588.313477	1119.556274	38.323364
844.455994	887.453125	1572.384888	1023.984375	19.933556
844.757690	907.932800	1499.568237	1080.872437	29.230778
845.059326	921.585938	1508.670288	1105.903076	31.395342
845.360962	896.555176	1608.793213	1133.209351	33.226837
845.662476	846.493713	1517.772339	1110.454102	39.322029
845.963989	855.595825	1465.435425	1021.708862	27.238808
846.265381	853.320313	1469.986450	1051.290649	32.103325
846.566772	905.657288	1413.098389	1092.250000	36.771305
846.868042	935.239075	1463.159912	1103.627563	31.896542
847.169373	864.697876	1408.547363	1130.933838	48.953979
847.470581	871.524475	1456.333252	1008.055725	23.346306
847.771729	948.892151	1408.547363	1087.698975	30.198030
848.072815	985.300537	1433.578125	1183.270874	44.162445
848.373901	903.381775	1422.200562	1110.454102	39.912266
848.674866	928.412476	1365.312500	1101.352051	39.583328
848.975891	869.248962	1351.659302	1076.321289	42.924522
849.276794	944.341125	1333.455200	998.953613	14.035084
849.577637	871.524475	1317.526489	1028.535400	35.204082
849.878357	944.341125	1415.373901	992.127075	10.144931
850.179077	889.728638	1367.588013	1080.872437	40.000011
850.479736	912.483826	1431.302612	1046.739624	25.877205
850.780396	889.728638	1376.690063	962.545288	14.953269
851.080994	848.769287	1319.802124	1049.015137	42.512077
851.381470	837.391663	1333.455200	1124.107300	57.798168
851.681946	880.626526	1424.476074	1028.535400	27.196653
851.982361	948.892151	1369.863525	1005.780212	13.513522
852.282715	903.381775	1369.863525	994.402588	19.512192
852.583008	969.371887	1447.231201	1119.556274	31.428577
852.883240	992.127075	1328.904175	1092.250000	29.729731
853.183411	907.932800	1392.618774	1108.178589	41.314541
853.483521	985.300537	1401.720825	1044.463989	14.207629
853.783630	866.973450	1433.578125	1021.708862	27.309237
854.083679	903.381775	1349.383789	1055.841675	34.183681
854.383667	942.065613	1419.924927	996.678101	11.428571
854.683533	821.463013	1283.393677	1049.015137	49.261101
854.983337	903.381775	1358.485962	1023.984375	26.499998
855.283203	937.514587	1347.108276	1051.290649	27.777786
855.582886	917.034912	1328.904175	1014.882263	23.756895
855.882629	914.759338	1269.740601	994.402588	22.435902
856.182312	923.861450	1228.781250	998.953613	24.626858
856.481873	935.239075	1365.312500	989.851563	12.698410
856.781372	894.279663	1431.302612	1060.392700	30.932205
857.080872	901.106262	1497.292725	948.892151	8.015259
857.380310	871.524475	1367.588013	1096.801025	45.412842
857.679688	967.096313	1344.832764	1071.770264	27.710842
857.979004	892.004150	1340.281738	1035.361938	31.979691
858.278259	942.065613	1335.730713	1039.912964	24.855480
858.577454	917.034912	1392.618774	1058.117188	29.665068
858.876648	846.493713	1374.414551	1021.708862	33.189663
859.175720	894.279663	1360.761475	957.994263	13.658539
859.474792	942.065613	1328.904175	1012.606750	18.235291
859.773743	887.453125	1292.495850	1094.525513	51.123592
860.072693	844.218201	1281.118164	989.851563	33.333344
860.371521	946.616638	1349.383789	976.198425	7.344637
860.670349	864.697876	1328.904175	1046.739624	39.215698
860.969116	948.892151	1292.495850	1001.229126	15.231785
861.267883	942.065613	1310.699951	1014.882263	19.753084
861.566589	889.728638	1340.281738	989.851563	22.222225
861.865112	844.218201	1322.077637	987.576050	30.000004
862.163635	921.585938	1287.944824	969.371887	13.043481
862.462158	887.453125	1335.730713	1051.290649	36.548229
862.760620	880.626526	1335.730713	978.473938	21.500002
863.059021	946.616638	1274.291626	1074.045776	38.888882
863.357361	864.697876	1281.118164	989.851563	30.054657
863.655640	935.239075	1278.842651	1080.872437	42.384121
863.953857	912.483826	1242.434326	1017.157776	31.724138
864.251953	930.687988	1333.455200	1083.147949	37.853123
864.550110	928.412476	1331.179688	1046.739624	29.378546
864.848206	930.687988	1315.250977	1058.117188	33.136105
865.146179	1023.984375	1265.189575	1026.259888	0.943393
865.444092	948.892151	1372.139038	1135.484863	44.086021
865.741943	946.616638	1351.659302	1021.708862	18.539337
866.039795	962.545288	1306.148926	1012.606750	14.569538
866.337646	885.177612	1324.353149	1049.015137	37.305702
866.635376	919.310425	1344.832764	1033.086426	26.737963
866.933044	948.892151	1285.669312	1001.229126	15.540536
867.230652	880.626526	1328.904175	1101.352051	49.238575
867.528198	878.351013	1249.260864	1062.668213	49.693260
867.825745	914.759338	1233.332275	989.851563	23.571438
868.123230	830.565063	1333.455200	980.749451	29.864254
868.420593	964.820801	1376.690063	992.127075	6.629840
868.717896	969.371887	1324.353149	1037.637451	19.230751
869.015198	962.545288	1333.455200	1039.912964	20.858887
869.312439	869.248962	1340.281738	942.065613	15.458935
869.609619	866.973450	1303.873413	1028.535400	36.979164
869.906738	939.790100	1281.118164	1019.433350	23.333344
870.203796	903.381775	1378.965576	1030.810913	26.794256
870.500854	853.320313	1260.638550	1042.188477	46.368698
870.797791	919.310425	1192.372925	1014.882263	34.999985
871.094666	957.994263	1226.505737	1051.290649	34.745773
871.391602	921.585938	1319.802124	1112.729614	47.999977
871.688293	914.759338	1297.046875	1033.086426	30.952379
871.985107	973.922913	1315.250977	1060.392700	25.333336
872.281738	889.728638	1342.557251	1039.912964	33.165821
872.578369	912.483826	1331.179688	998.953613	20.652172
872.874939	912.483826	1347.108276	1012.606750	23.036654
873.171509	932.963501	1262.914063	983.024963	15.172413
873.467957	967.096313	1262.914063	1115.005249	50.000019
873.764343	942.065613	1335.730713	1014.882263	18.497107
874.060669	939.790100	1303.873413	1051.290649	30.625010
874.356995	939.790100	1274.291626	1019.433350	23.809532
874.653198	944.341125	1274.291626	1067.219238	37.241379
874.949463	1005.780212	1390.343262	1023.984375	4.733727
875.245544	905.657288	1374.414551	996.678101	19.417473
875.541626	1012.606750	1335.730713	1044.463989	9.859138
875.837646	951.167725	1344.832764	1026.259888	19.075142
876.133606	946.616638	1240.158813	1099.076538	51.937988
876.429565	923.861450	1308.424438	1008.055725	21.893494
876.725403	923.861450	1344.832764	1005.780212	19.459465
877.021179	907.932800	1299.322388	985.300537	19.767448
877.316956	880.626526	1347.108276	1026.259888	31.219521
877.612610	937.514587	1244.709839	955.718750	5.925926
877.908203	866.973450	1308.424438	1001.229126	30.412363
878.203857	907.932800	1308.424438	1014.882263	26.704544
878.499390	844.218201	1258.363037	978.473938	32.417580
878.794800	882.902100	1385.792114	1074.045776	38.009041
879.090271	841.942688	1403.996338	1089.974487	44.129559
879.385559	878.351013	1256.087524	1033.086426	40.963848
879.680847	835.116150	1326.628662	1076.321289	49.074059
879.976196	951.167725	1388.067749	1062.668213	25.520824
880.271301	946.616638	1522.323364	1023.984375	13.438741
880.566467	917.034912	1508.670288	1108.178589	32.307682
880.861572	855.595825	1656.579102	1121.831787	33.238644
881.156555	967.096313	1708.916138	1149.138062	24.539886
881.451477	910.208313	2088.927979	1276.567139	31.081079
881.746460	942.065613	2607.746826	1410.822876	28.142076
882.041321	923.861450	3365.495361	1692.987427	31.500463
882.336121	901.106262	4182.407227	1877.304688	29.750347
882.630798	960.269775	4598.827637	2009.284912	28.830519
882.925537	896.555176	4500.979980	2088.927979	33.080807
883.220215	939.790100	4353.071289	1950.121338	29.600000
883.514771	910.208313	4029.947266	1854.549438	30.269876
883.809326	978.473938	3784.191162	1834.069824	30.494730
884.103760	871.524475	3490.648926	1683.885376	31.016506
884.398132	903.381775	3147.045166	1640.650513	32.860043
884.692505	946.616638	3003.687500	1595.140137	31.526552
884.986816	898.830688	2767.033203	1547.354126	34.713764
885.281067	912.483826	2514.450439	1399.445313	30.397732
885.575256	887.453125	2405.225586	1338.006226	29.685154
885.869385	810.085388	2230.010498	1351.659302	38.141022
886.163452	946.616638	2038.866699	1303.873413	32.708332
886.457458	871.524475	1991.080688	1208.301514	30.081299
886.751465	901.106262	1804.488037	1174.168701	30.226694
887.045410	935.239075	1704.365112	1199.199463	34.319523
887.339233	932.963501	1674.783325	1246.985352	42.331284
887.632996	964.820801	1588.313477	1128.658325	26.277378
887.926758	960.269775	1533.701050	1162.791138	35.317459
888.220398	953.443237	1520.047852	1099.076538	25.702808
888.514099	887.453125	1488.190552	1167.342163	46.590912
888.807678	880.626526	1481.364014	1051.290649	28.409101
889.101196	914.759338	1363.036987	1012.606750	21.827414
889.394653	882.902100	1403.996338	1096.801025	41.048031
889.688049	855.595825	1333.455200	1117.280762	54.761913
889.981384	1019.433350	1306.148926	1089.974487	24.603176
890.274719	876.075500	1356.210449	1055.841675	37.440762
890.567932	826.014038	1260.638550	1037.637451	48.691090
>>>>>End Processed Spectral Data<<<<<
