Jaz Data File
++++++++++++++++++++++++++++++++++++
Date: Wed Feb 07 06:44:57 2024
User: jaz
Dark Spectrum Present: Yes
Reference Spectrum Present: Yes
Processed Spectrum Present: Yes
Spectrometers: JAZA3692
Integration Time (usec): 40000 (JAZA3692)
Spectra Averaged: 1 (JAZA3692)
Boxcar Smoothing: 0 (JAZA3692)
Correct for Electrical Dark: No (JAZA3692)
Strobe/Lamp Enabled: Yes (JAZA3692)
Correct for Detector Non-linearity: No (JAZA3692)
Correct for Stray Light: No (JAZA3692)
Number of Pixels in Processed Spectrum: 2048
>>>>>Begin Processed Spectral Data<<<<<
W	D	R	S	P
190.244385	0.000000	0.000000	0.000000	0.000000
190.627136	0.000000	0.000000	0.000000	0.000000
191.009842	1083.147949	1133.209351	1033.086426	-100.000244
191.392532	1112.729614	1119.556274	1014.882263	-1433.312134
191.775177	1108.178589	1076.321289	1076.321289	100.000000
192.157791	1074.045776	1146.862427	1051.290649	-31.249895
192.540390	1196.923950	1101.352051	1119.556274	80.952324
192.922943	1142.311401	1117.280762	1071.770264	281.819153
193.305481	1085.423462	1274.291626	1085.423462	0.000000
193.687958	1201.474976	1078.596802	1119.556274	66.666603
194.070419	1180.995239	1158.240112	1130.933838	220.000534
194.452866	1130.933838	1167.342163	1133.209351	6.249979
194.835251	1140.035889	1199.199463	1089.974487	-84.615242
195.217621	1155.964600	1133.209351	1046.739624	479.999023
195.599960	1092.250000	1165.066650	1128.658325	50.000000
195.982254	1162.791138	1099.076538	1085.423462	121.428490
196.364517	1101.352051	1133.209351	1110.454102	28.571320
196.746750	1085.423462	1192.372925	1035.361938	-46.808578
197.128952	1162.791138	1133.209351	1105.903076	192.307724
197.511139	1165.066650	1110.454102	1137.760376	50.000000
197.893280	1151.413574	1174.168701	1140.035889	-50.000538
198.275391	1110.454102	1140.035889	1119.556274	30.769516
198.657471	1199.199463	1171.893188	1089.974487	399.999542
199.039520	1146.862427	1137.760376	1087.698975	650.001343
199.421539	1180.995239	1174.168701	1128.658325	766.668457
199.803513	1124.107300	1119.556274	1160.515625	-800.002686
200.185471	1206.026001	1137.760376	1069.494751	200.000000
200.567383	1117.280762	1180.995239	1112.729614	-7.143035
200.949265	1126.382813	1158.240112	1037.637451	-278.571503
201.331131	1165.066650	1208.301514	1094.525513	-163.158005
201.712967	1183.270874	1144.586914	1071.770264	288.234741
202.094742	1124.107300	1169.617676	1130.933838	14.999960
202.476517	1160.515625	1149.138062	1076.321289	740.003235
202.858231	1153.689087	1133.209351	1067.219238	422.221497
203.239944	1165.066650	1149.138062	1108.178589	357.144379
203.621582	1171.893188	1137.760376	1083.147949	259.999786
204.003235	1174.168701	1140.035889	1130.933838	126.666573
204.384827	1153.689087	1203.750488	1028.535400	-250.000366
204.766388	1174.168701	1092.250000	1062.668213	136.111145
205.147934	1133.209351	1228.781250	1039.912964	-97.619057
205.529449	1060.392700	1231.056763	1069.494751	5.333314
205.910904	1135.484863	1135.484863	1089.974487	0.000000
206.292343	1167.342163	1126.382813	1071.770264	233.333527
206.673767	1169.617676	1149.138062	1069.494751	488.890686
207.055115	1185.546387	1231.056763	1103.627563	-180.000320
207.436462	1112.729614	1162.791138	1058.117188	-109.090622
207.817780	1137.760376	1171.893188	1094.525513	-126.666573
208.199051	1126.382813	1158.240112	1019.433350	-335.714142
208.580307	1174.168701	1142.311401	1069.494751	328.571320
208.961517	1112.729614	1115.005249	1003.504700	-4799.755859
209.342712	1051.290649	1130.933838	1039.912964	-14.285824
209.723846	1117.280762	1121.831787	1187.821899	1550.005371
210.104965	1160.515625	1151.413574	1014.882263	1600.005981
210.486069	1099.076538	1149.138062	1064.943726	-68.181732
210.867111	1140.035889	1162.791138	1069.494751	-309.999420
211.248123	1137.760376	1183.270874	1064.943726	-159.999680
211.629120	1167.342163	1185.546387	1126.382813	-224.999161
212.010071	1121.831787	1217.403687	1062.668213	-61.904781
212.390991	1165.066650	1146.862427	1076.321289	487.498749
212.771881	1117.280762	1192.372925	1103.627563	-18.181921
213.152756	1110.454102	1167.342163	1071.770264	-67.999924
213.533569	1149.138062	1124.107300	1071.770264	309.090851
213.914368	1142.311401	1108.178589	1051.290649	266.666443
214.295135	1180.995239	1099.076538	1151.413574	36.111004
214.675858	1140.035889	1185.546387	1103.627563	-79.999840
215.056549	1130.933838	1094.525513	1023.984375	293.750031
215.437225	1119.556274	1115.005249	1055.841675	1400.005371
215.817841	1171.893188	1217.403687	1162.791138	-19.999893
216.198441	1190.097412	1149.138062	1055.841675	327.777985
216.579025	1190.097412	1160.515625	1087.698975	346.153656
216.959549	1158.240112	1196.923950	1033.086426	-323.529663
217.340057	1135.484863	1151.413574	998.953613	-857.139343
217.720535	1124.107300	1135.484863	1010.331238	-1000.003784
218.100967	1144.586914	1194.648438	1035.361938	-218.181488
218.481369	1153.689087	1160.515625	1062.668213	-1333.338745
218.861740	1137.760376	1212.852539	1089.974487	-63.636318
219.242065	1094.525513	1199.199463	1008.055725	-82.608696
219.622391	1099.076538	1199.199463	1096.801025	-2.272719
220.002670	1099.076538	1165.066650	1053.566162	-68.965446
220.382919	1089.974487	1251.536499	1092.250000	1.408445
220.763123	1099.076538	1171.893188	1069.494751	-40.625031
221.143295	1146.862427	1192.372925	1064.943726	-179.999573
221.523453	1112.729614	1146.862427	1117.280762	13.333643
221.903549	1096.801025	1199.199463	1092.250000	-4.444428
222.283630	1108.178589	1165.066650	1115.005249	12.000163
222.663696	1140.035889	1144.586914	1101.352051	-850.002686
223.043701	1169.617676	1224.230225	1083.147949	-158.333069
223.423676	1178.719727	1130.933838	1121.831787	119.047569
223.803635	1135.484863	1092.250000	1071.770264	147.368576
224.183548	1121.831787	1203.750488	1101.352051	-25.000074
224.563431	1124.107300	1187.821899	1140.035889	24.999905
224.943283	1215.128052	1265.189575	1074.045776	-281.817780
225.323105	1074.045776	1178.719727	1130.933838	54.347870
225.702881	1133.209351	1221.954712	1064.943726	-76.923035
226.082642	1080.872437	1140.035889	1046.739624	-57.692394
226.462357	1089.974487	1151.413574	1064.943726	-40.740776
226.842041	1103.627563	1153.689087	1096.801025	-13.636297
227.221695	1178.719727	1208.301514	1060.392700	-399.999573
227.601318	1096.801025	1212.852539	1039.912964	-49.019665
227.980911	1130.933838	1240.158813	1151.413574	18.750050
228.360474	1083.147949	1171.893188	1087.698975	5.128191
228.739990	1096.801025	1210.577026	1039.912964	-50.000053
229.119476	1121.831787	1228.781250	1119.556274	-2.127652
229.498932	1069.494751	1240.158813	1067.219238	-1.333329
229.878372	1067.219238	1331.179688	1149.138062	31.034506
230.257736	1153.689087	1358.485962	1110.454102	-21.111155
230.637115	1087.698975	1308.424438	1080.872437	-3.092773
231.016449	1135.484863	1312.975464	1078.596802	-32.051308
231.395737	1096.801025	1237.883301	1039.912964	-40.322613
231.774994	1124.107300	1215.128052	1051.290649	-80.000053
232.154221	1140.035889	1303.873413	1035.361938	-63.888874
232.533417	1142.311401	1342.557251	1085.423462	-28.409048
232.912582	1128.658325	1231.056763	1126.382813	-2.222214
233.291702	1151.413574	1306.148926	1060.392700	-58.823582
233.670792	1155.964600	1231.056763	1069.494751	-115.151627
234.049866	1158.240112	1217.403687	1089.974487	-115.384552
234.428894	1096.801025	1144.586914	1055.841675	-85.714325
234.807892	1176.444214	1226.505737	1055.841675	-240.908646
235.186874	1126.382813	1274.291626	1008.055725	-80.000023
235.565781	1101.352051	1244.709839	1124.107300	15.873047
235.944687	1126.382813	1274.291626	1074.045776	-35.384663
236.323547	1146.862427	1303.873413	1117.280762	-18.840506
236.702377	1115.005249	1256.087524	1089.974487	-17.741961
237.081177	1124.107300	1258.363037	1133.209351	6.779636
237.459946	1215.128052	1290.220337	1110.454102	-139.393753
237.838669	1233.332275	1231.056763	1101.352051	5800.021484
238.217361	1206.026001	1274.291626	1092.250000	-166.666611
238.596039	1119.556274	1342.557251	1096.801025	-10.204103
238.974670	1119.556274	1240.158813	1119.556274	0.000000
239.353271	1137.760376	1353.934937	1078.596802	-27.368425
239.731842	1149.138062	1253.812012	1130.933838	-17.391359
240.110367	1155.964600	1376.690063	1112.729614	-19.587675
240.488876	1162.791138	1303.873413	1078.596802	-59.677471
240.867340	1060.392700	1424.476074	1128.658325	18.749998
241.245789	1146.862427	1356.210449	1035.361938	-53.260826
241.624176	1083.147949	1406.271851	1144.586914	19.014057
242.002548	1153.689087	1415.373901	1137.760376	-6.086983
242.380890	1121.831787	1447.231201	1153.689087	9.790215
242.759186	1046.739624	1542.803101	1185.546387	27.981653
243.137451	1067.219238	1699.814087	1121.831787	8.633101
243.515686	1169.617676	1699.814087	1119.556274	-9.442048
243.893890	1151.413574	1652.028076	1142.311401	-1.818200
244.272049	1115.005249	1670.232300	1092.250000	-4.098368
244.650192	1105.903076	1588.313477	1115.005249	1.886811
245.028290	1130.933838	1604.242188	1089.974487	-8.653841
245.406357	1130.933838	1558.731689	1080.872437	-11.702116
245.784393	1119.556274	1570.109375	1026.259888	-20.707079
246.162384	1206.026001	1570.109375	1117.280762	-24.374977
246.540359	1162.791138	1604.242188	1146.862427	-3.608262
246.918289	1137.760376	1626.997314	1080.872437	-11.627892
247.296204	1196.923950	1770.355225	1115.005249	-14.285706
247.674057	1153.689087	2018.386963	1206.026001	6.052624
248.051895	1187.821899	2195.877686	1126.382813	-6.094810
248.429703	1226.505737	2168.571289	1235.607788	0.966180
248.807465	1153.689087	2161.744873	1199.199463	4.514668
249.185196	1155.964600	2045.693237	1130.933838	-2.813303
249.562897	1108.178589	1902.335449	1217.403687	13.753592
249.940567	1101.352051	1961.498901	1183.270874	9.523818
250.318192	1160.515625	1781.732788	1155.964600	-0.732598
250.695801	1144.586914	1695.262939	1108.178589	-6.611569
251.073349	1096.801025	1647.477051	1119.556274	4.132239
251.450882	1160.515625	1529.150024	1178.719727	4.938253
251.828400	1167.342163	1556.456177	1158.240112	-2.339173
252.205872	1101.352051	1683.885376	1165.066650	10.937503
252.583313	1110.454102	1736.222412	1133.209351	3.636370
252.960693	1158.240112	1654.303589	1128.658325	-5.963307
253.338074	1128.658325	1834.069824	1215.128052	12.258055
253.715408	1140.035889	1804.488037	1096.801025	-6.506844
254.092682	1176.444214	1890.957764	1169.617676	-0.955411
254.469955	1185.546387	1695.262939	1146.862427	-7.589308
254.847198	1085.423462	1624.721802	1183.270874	18.143467
255.224365	1023.984375	1638.375000	1149.138062	20.370377
255.601563	1101.352051	1629.272949	1155.964600	10.344835
255.978683	1110.454102	1531.425537	1117.280762	1.621644
256.355743	1112.729614	1542.803101	1153.689087	9.523831
256.732819	1146.862427	1556.456177	1167.342163	5.000012
257.109894	1101.352051	1604.242188	1101.352051	0.000000
257.486877	1053.566162	1677.058838	1187.821899	21.532848
257.863831	1099.076538	1690.711914	1092.250000	-1.153842
258.240753	1112.729614	1686.160889	1174.168701	10.714290
258.617645	1110.454102	1713.467163	1199.199463	14.716989
258.994507	1101.352051	1770.355225	1235.607788	20.068027
259.371307	1137.760376	1918.264038	1185.546387	6.122458
259.748108	1074.045776	1972.876587	1210.577026	15.189872
260.124878	1117.280762	2102.581299	1171.893188	5.542717
260.501617	1108.178589	2396.123291	1203.750488	7.420497
260.878296	1135.484863	2650.981689	1260.638550	8.258262
261.254944	1117.280762	2644.155273	1169.617676	3.427716
261.631561	1151.413574	2610.022461	1242.434326	6.240244
262.008179	1187.821899	2336.959961	1135.484863	-4.554460
262.384735	1142.311401	2182.224365	1212.852539	6.783370
262.761261	1142.311401	1966.049927	1165.066650	2.762436
263.137695	1151.413574	1970.601074	1206.026001	6.666658
263.514191	1171.893188	2000.182739	1256.087524	10.164844
263.890594	1080.872437	1929.641602	1203.750488	14.477205
264.267029	1121.831787	1877.304688	1187.821899	8.734941
264.643341	1044.463989	1879.580200	1190.097412	17.438702
265.019653	1060.392700	1886.406738	1228.781250	20.385677
265.395935	1103.627563	1854.549438	1146.862427	5.757571
265.772217	1158.240112	1815.865601	1201.474976	6.574390
266.148407	1083.147949	1781.732788	1171.893188	12.703573
266.524597	1096.801025	1959.223389	1153.689087	6.596311
266.900726	1160.515625	1979.703125	1153.689087	-0.833330
267.276855	1190.097412	2072.999512	1151.413574	-4.381442
267.652924	1178.719727	1997.907227	1155.964600	-2.777768
268.028992	1112.729614	2109.407715	1153.689087	4.109599
268.404999	1183.270874	2013.835938	1208.301514	3.013688
268.781006	1124.107300	2200.428711	1158.240112	3.171247
269.156921	1183.270874	2070.723877	1105.903076	-8.717960
269.532837	1142.311401	2054.795166	1171.893188	3.241897
269.908661	1210.577026	2091.203613	1249.260864	4.392763
270.284546	1092.250000	2050.244141	1231.056763	14.489312
270.660339	1144.586914	2120.785400	1169.617676	2.564106
271.036133	1126.382813	2164.020264	1151.413574	2.412284
271.411835	1146.862427	2132.163086	1185.546387	3.926107
271.787537	1101.352051	2232.285889	1176.444214	6.639837
272.163239	1049.015137	2503.072998	1201.474976	10.485128
272.538849	1174.168701	2655.532715	1235.607788	4.147467
272.914459	1158.240112	2544.032227	1210.577026	3.776679
273.290070	1149.138062	2468.940186	1310.699951	12.241372
273.665588	1101.352051	2245.938965	1253.812012	13.320086
274.041046	1094.525513	2377.919189	1237.883301	11.170212
274.416565	1028.535400	2314.204590	1192.372925	12.743365
274.791962	1051.290649	2270.969727	1126.382813	6.156715
275.167389	1155.964600	2227.734863	1142.311401	-1.273892
275.542755	1108.178589	2175.397949	1110.454102	0.213219
275.918060	1121.831787	2241.387939	1246.985352	11.178856
276.293365	1121.831787	2280.071777	1146.862427	2.161093
276.668640	1160.515625	2355.164063	1089.974487	-5.904761
277.043854	1099.076538	2277.796387	1169.617676	5.984555
277.419037	1144.586914	2402.949951	1099.076538	-3.616633
277.794189	1206.026001	2380.194824	1180.995239	-2.131786
278.169312	1144.586914	2309.653564	1237.883301	8.007815
278.544373	1167.342163	2264.143311	1212.852539	4.149374
278.919464	1149.138062	2309.653564	1228.781250	6.862742
279.294464	1096.801025	2371.092773	1176.444214	6.249996
279.669464	1153.689087	2332.408936	1158.240112	0.386099
280.044403	1053.566162	2366.541748	1237.883301	14.038124
280.419312	1078.596802	2361.990479	1146.862427	5.319149
280.794189	1110.454102	2277.796387	1146.862427	3.118907
281.169037	1144.586914	2366.541748	1203.750488	4.841715
281.543854	1158.240112	2334.684326	1253.812012	8.123794
281.918671	1135.484863	2471.215576	1135.484863	0.000000
282.293365	1126.382813	2575.889648	1201.474976	5.180532
282.668091	1064.943726	2660.083740	1228.781250	10.271044
283.042786	1124.107300	2883.084961	1217.403687	5.304012
283.417419	1142.311401	2778.410889	1281.118164	8.484005
283.792053	1187.821899	2562.236328	1231.056763	3.145693
284.166595	1119.556274	2689.665527	1319.802124	12.753625
284.541138	1133.209351	2628.226563	1201.474976	4.566210
284.915619	1096.801025	2614.573486	1281.118164	12.143925
285.290100	1137.760376	2801.166016	1185.546387	2.872782
285.664520	1137.760376	2739.727051	1176.444214	2.414772
286.038940	1105.903076	2789.788574	1212.852539	6.351350
286.413300	1144.586914	2828.472412	1274.291626	7.702704
286.787628	1028.535400	2926.319824	1292.495850	13.908875
287.161896	1174.168701	2953.625977	1376.690063	11.381075
287.536194	1140.035889	3046.922363	1278.842651	7.279236
287.910400	1064.943726	2853.503174	1290.220337	12.595422
288.284607	1121.831787	2730.625000	1292.495850	10.608204
288.658752	1121.831787	2662.359375	1333.455200	13.737074
289.032867	1140.035889	2562.236328	1306.148926	11.680002
289.406921	1080.872437	2678.288086	1299.322388	13.675210
289.781006	1144.586914	2687.390137	1297.046875	9.882010
290.154999	1135.484863	2716.971924	1385.792114	15.827334
290.529022	1151.413574	2844.401123	1335.730713	10.887094
290.902954	1078.596802	2867.156250	1292.495850	11.959292
291.276825	1135.484863	3015.064941	1449.506714	16.707022
291.650757	1137.760376	2990.034424	1435.853638	16.093367
292.024597	1112.729614	2960.452637	1349.383789	12.807881
292.398407	1226.505737	2905.840088	1483.639526	15.311649
292.772156	1137.760376	2769.308838	1365.312500	13.947003
293.145905	1080.872437	2716.971924	1356.210449	16.828928
293.519592	1144.586914	2703.318604	1363.036987	14.014604
293.893280	1119.556274	2830.747803	1365.312500	14.361702
294.266907	1094.525513	2912.666504	1394.894287	16.520653
294.640533	1140.035889	2933.146240	1388.067749	13.832493
295.014069	1137.760376	2990.034424	1431.302612	15.847668
295.387604	1124.107300	3074.228516	1469.986450	17.736290
295.761078	1105.903076	3147.045166	1433.578125	16.053514
296.134552	1101.352051	3213.035400	1474.537476	17.672415
296.507996	1158.240112	3096.983887	1472.261963	16.197182
296.881378	1117.280762	3188.004639	1488.190552	17.912083
297.254730	1169.617676	3235.790527	1549.629639	18.392071
297.628021	1146.862427	3542.985840	1631.548462	20.227924
298.001282	1151.413574	3565.741211	1633.823975	19.981150
298.374573	1185.546387	3442.863037	1533.701050	15.423387
298.747803	1167.342163	3447.414063	1633.823975	20.459084
299.121002	1121.831787	3324.535889	1526.874512	18.388432
299.494141	1135.484863	3285.852051	1538.252075	18.730160
299.867188	1130.933838	3126.565674	1501.843750	18.586090
300.240265	1137.760376	3065.126465	1529.150024	20.306971
300.613312	1076.321289	2944.523926	1495.017212	22.411697
300.986328	1112.729614	3033.269287	1449.506714	17.535545
301.359314	1087.698975	2930.870850	1538.252075	24.444443
301.732239	1126.382813	2803.441650	1433.578125	18.317503
302.105103	1058.117188	2974.105713	1399.445313	17.814728
302.477997	1101.352051	2962.728027	1492.741699	21.026899
302.850830	1128.658325	3044.646729	1547.354126	21.852732
303.223602	1196.923950	2889.911377	1472.261963	16.263441
303.596375	1180.995239	3005.962891	1497.292725	17.331676
303.969116	1094.525513	2883.084961	1488.190552	22.010174
304.341766	1149.138062	2842.125488	1440.404663	17.204298
304.714478	1128.658325	2807.992676	1438.129150	18.428185
305.087067	1135.484863	2732.900391	1429.027100	18.376072
305.459656	1108.178589	2721.522949	1397.169800	17.912556
305.832214	1176.444214	2844.401123	1360.761475	11.050481
306.204681	1103.627563	2801.166016	1472.261963	21.715820
306.577148	1110.454102	2780.686523	1426.751587	18.937334
306.949646	1155.964600	2714.696289	1413.098389	16.496347
307.322021	1124.107300	2789.788574	1460.884399	20.218580
307.694397	1171.893188	2826.196777	1456.333252	17.193945
308.066742	1137.760376	2762.482178	1460.884399	19.887960
308.439026	1130.933838	2939.972900	1419.924927	15.974839
308.811279	1105.903076	3051.473389	1388.067749	14.502929
309.183502	1137.760376	3108.361328	1495.017212	18.129333
309.555695	1180.995239	3058.300049	1485.915039	16.242424
309.927887	1069.494751	3046.922363	1474.537476	20.483315
310.299988	1124.107300	3106.085938	1456.333252	16.762339
310.672058	1158.240112	3144.769775	1438.129150	14.089346
311.044128	1140.035889	3169.800537	1481.364014	16.816143
311.416168	1171.893188	3160.698486	1456.333252	14.302057
311.788147	1174.168701	3231.239502	1535.976563	17.588499
312.160065	1074.045776	3206.208740	1458.608887	18.036289
312.531982	1112.729614	3172.075928	1492.741699	18.453045
312.903870	1196.923950	3010.513916	1390.343262	10.664997
313.275696	1128.658325	2939.972900	1506.394775	20.854271
313.647491	1178.719727	3053.749023	1440.404663	13.956312
314.019318	1105.903076	3005.962891	1479.088501	19.640720
314.391022	1115.005249	2992.309814	1433.578125	16.969696
314.762726	1146.862427	2992.309814	1517.772339	20.098644
315.134369	1010.331238	3188.004639	1492.741699	22.152563
315.505981	1099.076538	3135.667725	1526.874512	21.005589
315.877594	1124.107300	3331.362549	1567.833862	20.103092
316.249146	1155.964600	3167.524902	1431.302612	13.687783
316.620636	1185.546387	3005.962891	1520.047852	18.374996
316.992157	1162.791138	3042.371338	1460.884399	15.859566
317.363586	1165.066650	2933.146240	1406.271851	13.642214
317.735016	1083.147949	2892.187012	1424.476074	18.867924
318.106354	1105.903076	2901.289063	1406.271851	16.730040
318.477722	1151.413574	2894.462402	1465.435425	18.015665
318.849060	1096.801025	2933.146240	1406.271851	16.852541
319.220306	1083.147949	2969.554688	1415.373901	17.611576
319.591522	1083.147949	2994.585449	1438.129150	18.571426
319.962738	1142.311401	3053.749023	1383.516602	12.619046
320.333923	1135.484863	3037.820313	1408.547363	14.354067
320.705017	1144.586914	2937.697266	1520.047852	20.939087
321.076111	1180.995239	3071.953125	1390.343262	11.071004
321.447144	1155.964600	2990.034424	1535.976563	20.719603
321.818176	1146.862427	2873.982666	1378.965576	13.438737
322.189178	1149.138062	2810.268311	1360.761475	12.739724
322.560120	1155.964600	2980.932129	1365.312500	11.471322
322.931030	1092.250000	2930.870850	1419.924927	17.821777
323.301910	1146.862427	3115.187988	1415.373901	13.641619
323.672729	1187.821899	3208.484375	1403.996338	10.698196
324.043549	1101.352051	3288.127441	1424.476074	14.776278
324.414337	1140.035889	3390.525879	1515.496826	16.683519
324.785095	1165.066650	3629.455566	1522.323364	14.496767
325.155792	1110.454102	3597.598389	1460.884399	14.089665
325.526428	1160.515625	3533.883789	1565.558350	17.066156
325.897034	1142.311401	3461.067139	1517.772339	16.192345
326.267670	1124.107300	3483.822266	1481.364014	15.139826
326.638184	1071.770264	3379.148438	1481.364014	17.751478
327.008728	1174.168701	3542.985840	1465.435425	12.295872
327.379211	1153.689087	3527.057129	1506.394775	14.860976
327.749634	1108.178589	3413.281250	1531.425537	18.361307
328.120026	1133.209351	3424.658691	1456.333252	14.101290
328.490417	1151.413574	3404.179199	1488.190552	14.949491
328.860748	1144.586914	3292.678711	1401.720825	11.970341
329.231079	1171.893188	3304.056152	1422.200562	11.739598
329.601318	1130.933838	3356.393066	1515.496826	17.280163
329.971558	1108.178589	3461.067139	1410.822876	12.862669
330.341736	1108.178589	3269.923340	1469.986450	16.736845
330.711914	1103.627563	3374.597412	1435.853638	14.629260
331.082062	1121.831787	3422.383301	1474.537476	15.331353
331.452148	1151.413574	3306.331787	1456.333252	14.149942
331.822174	1126.382813	3326.811523	1499.568237	16.959669
332.192200	1144.586914	3431.485352	1406.271851	11.442788
332.562134	1069.494751	3445.138428	1444.955688	15.804599
332.932129	1149.138062	3602.149414	1433.578125	11.595547
333.302063	1071.770264	3784.191162	1535.976563	17.114096
333.671906	1092.250000	3665.864014	1406.271851	12.201591
334.041718	1096.801025	3645.384277	1440.404663	13.482143
334.411499	1078.596802	3891.140625	1410.822876	11.812298
334.781281	1105.903076	3772.813477	1460.884399	13.310583
335.151001	1237.883301	3772.813477	1469.986450	9.156195
335.520721	1167.342163	3695.445801	1479.088501	12.331233
335.890350	1169.617676	3618.078125	1542.803101	15.241636
336.259979	1160.515625	3800.119629	1515.496826	13.448275
336.629547	1196.923950	3845.630127	1447.231201	9.450171
336.999084	1108.178589	3713.649902	1526.874512	16.069874
337.368622	1019.433350	3697.721191	1451.782227	16.142735
337.738098	1067.219238	3863.834229	1497.292725	15.378359
338.107513	1067.219238	3756.884766	1504.119263	16.243656
338.476898	1099.076538	3729.578613	1504.119263	15.397925
338.846252	1151.413574	3825.150391	1483.639526	12.425529
339.215576	1171.893188	3809.221924	1506.394775	12.683349
339.584869	1096.801025	3884.313965	1540.527588	15.918367
339.954132	1201.474976	3763.711426	1440.404663	9.325045
340.323334	1115.005249	3574.843262	1531.425537	16.928770
340.692505	1087.698975	3656.761963	1444.955688	13.906110
341.061646	1103.627563	3643.108887	1440.404663	13.261648
341.430786	1192.372925	3684.068115	1490.466064	11.963467
341.799896	1212.852539	3711.374512	1501.843750	11.566486
342.168915	1180.995239	3788.742188	1540.527588	13.787086
342.537903	1153.689087	3882.038574	1499.568237	12.677230
342.906830	1119.556274	3852.456787	1561.007324	16.153206
343.275757	1201.474976	3991.263428	1542.803101	12.234910
343.644684	1153.689087	4032.222900	1413.098389	9.011856
344.013550	1126.382813	4070.906738	1570.109375	15.069551
344.382355	1180.995239	4109.590332	1588.313477	13.908315
344.751129	1103.627563	4282.530273	1629.272949	16.535435
345.119873	1126.382813	4548.766113	1615.619751	14.295212
345.488586	1112.729614	4639.787109	1601.966675	13.870969
345.857269	1151.413574	4785.420410	1599.691162	12.335629
346.225891	1165.066650	4805.899902	1690.711914	14.437499
346.594482	1110.454102	4801.349121	1599.691162	13.255241
346.963043	1158.240112	4956.084473	1674.783325	13.600958
347.331543	1153.689087	4637.511230	1626.997314	13.585889
347.700043	1105.903076	4505.531250	1595.140137	14.390899
348.068512	1067.219238	4296.183105	1588.313477	16.138124
348.436951	1151.413574	4369.000000	1574.660400	13.154171
348.805328	1069.494751	4309.836426	1460.884399	12.078653
349.173645	1160.515625	4132.345703	1597.415649	14.701380
349.541931	1119.556274	4252.948242	1533.701050	13.217138
349.910217	1083.147949	4328.040527	1561.007324	14.726508
350.278473	1169.617676	4505.531250	1595.140137	12.755800
350.646667	1055.841675	4639.787109	1545.078613	13.650792
351.014801	1140.035889	4500.979980	1556.456177	12.389979
351.382935	1140.035889	4480.500488	1556.456177	12.465940
351.751007	1076.321289	4694.399414	1629.272949	15.283022
352.119049	1149.138062	4660.266602	1588.313477	12.508099
352.487091	1183.270874	4637.511230	1574.660400	11.330698
352.855072	1130.933838	4644.337891	1554.180664	12.046631
353.222992	1144.586914	4635.235840	1556.456177	11.799217
353.590881	1219.679199	4867.338867	1590.588989	10.168432
353.958740	1196.923950	4876.440918	1667.956787	12.801485
354.326599	1053.566162	5179.085449	1652.028076	14.506341
354.694397	1137.760376	5038.002930	1699.814087	14.410737
355.062134	1201.474976	5242.799805	1733.946899	13.175678
355.429840	1119.556274	5386.157715	1727.120239	14.239998
355.797516	1105.903076	5481.729492	1718.018188	13.988561
356.165192	1117.280762	5618.260742	1638.375000	11.577351
356.532776	1171.893188	5577.301270	1752.151001	13.171488
356.900360	1155.964600	5747.965332	1790.834839	13.825568
357.267883	1058.117188	5904.976563	1724.844727	13.755867
357.635376	1105.903076	6355.529785	1768.079712	12.613785
358.002808	1124.107300	6505.713867	1852.273926	13.530656
358.370270	1165.066650	6856.144043	1881.855713	12.594963
358.737640	1130.933838	6931.236328	1943.294800	14.005492
359.105011	1128.658325	6621.765625	1979.703125	15.492957
359.472321	1174.168701	6403.315430	1909.161987	14.055703
359.839569	1103.627563	6321.396973	1934.192627	15.918010
360.206787	1137.760376	6141.630859	1865.927002	14.552068
360.574005	1126.382813	6569.428711	1831.794189	12.959865
360.941193	1069.494751	6696.857910	1854.549438	13.950666
361.308319	1126.382813	7170.166016	1975.152100	14.043675
361.675415	1087.698975	7645.750000	1984.254150	13.671062
362.042450	1126.382813	8282.895508	2104.856689	13.672496
362.409424	1155.964600	8585.540039	2120.785400	12.986217
362.776428	1117.280762	9004.235352	2159.469238	13.214080
363.143402	1101.352051	8510.448242	2111.683350	13.636364
363.510284	1162.791138	7948.394043	2025.213501	12.709591
363.877136	1199.199463	7154.237305	1963.774414	12.839128
364.243988	1064.943726	6639.969727	1865.927002	14.367347
364.610779	1144.586914	6446.550293	1790.834839	12.188842
364.977539	1165.066650	6271.335449	1856.824951	13.547237
365.344269	1117.280762	6178.039063	1752.151001	12.544963
365.710938	1169.617676	6116.600098	1738.497925	11.499540
366.077576	1105.903076	5875.394531	1731.671387	13.120232
366.444183	1108.178589	5916.354004	1752.151001	13.393281
366.810760	1142.311401	5884.496582	1731.671387	12.428026
367.177277	1158.240112	5914.078613	1845.447388	14.449761
367.543823	1094.525513	6048.334473	1770.355225	13.642628
367.910248	1155.964600	5859.465820	1804.488037	13.788100
368.276642	1112.729614	5900.425293	1708.916138	12.452473
368.643036	1112.729614	5893.598633	1702.089600	12.327465
369.009399	1115.005249	5829.884277	1758.977539	13.658299
369.375671	1062.668213	5645.566895	1802.212524	16.137043
369.741974	1030.810913	5677.424316	1695.262939	14.299706
370.108215	1126.382813	5750.241211	1711.191650	12.647637
370.474396	1144.586914	5718.383789	1626.997314	10.547263
370.840546	1178.719727	5736.587891	1672.507813	10.833751
371.206665	1137.760376	5977.792969	1711.191650	11.847673
371.572784	1099.076538	5930.007324	1777.181763	14.036741
371.938843	1094.525513	6082.467285	1799.937012	14.142336
372.304840	1130.933838	6150.732910	1768.079712	12.692657
372.670807	1105.903076	6316.845703	1777.181763	12.882097
373.036713	1124.107300	5984.619629	1729.395752	12.453182
373.402649	1130.933838	5998.272949	1820.416626	14.165498
373.768524	1087.698975	6034.681152	1713.467163	12.649493
374.134308	1119.556274	6153.008301	1720.293701	11.934899
374.500122	1169.617676	6082.467285	1774.906250	12.320519
374.865875	1151.413574	6137.079590	1802.212524	13.053400
375.231567	1087.698975	6248.580078	1704.365112	11.948854
375.597260	1185.546387	6423.795410	1790.834839	11.555167
375.962891	1110.454102	6514.815918	1818.141113	13.094738
376.328461	1115.005249	6658.173828	1872.753662	13.669951
376.694031	1089.974487	6690.031250	1861.375977	13.774887
377.059540	1142.311401	7192.921387	1875.029175	12.109817
377.425049	1112.729614	7406.820313	1922.815063	12.870571
377.790497	1126.382813	7638.923340	1981.978638	13.137666
378.155945	1196.923950	7868.750977	2072.999512	13.130969
378.521301	1119.556274	7943.843262	1938.743774	12.004001
378.886597	1178.719727	7550.178223	1972.876587	12.464287
379.251892	1153.689087	7176.992676	1890.957764	12.240271
379.617157	1094.525513	7026.808105	1886.406738	13.348677
379.982422	1121.831787	6994.951172	1786.283813	11.313444
380.347595	1108.178589	6865.246094	1736.222412	10.909093
380.712738	1121.831787	6776.500977	1779.457275	11.629779
381.077820	1062.668213	6910.756836	1888.682251	14.124513
381.442902	1142.311401	6808.358398	1818.141113	11.927711
381.807953	1062.668213	6783.327637	1831.794189	13.444709
382.172974	1062.668213	6655.898438	1774.906250	12.733930
382.537933	1110.454102	6660.449219	1834.069824	13.038133
382.902832	1149.138062	6796.980469	1843.171875	12.288477
383.267700	1146.862427	7033.634766	1827.243164	11.557789
383.632538	1142.311401	7031.359375	1881.855713	12.557961
383.997345	1187.821899	7206.574219	1888.682251	11.644611
384.362152	1112.729614	7377.238281	1915.988525	12.822376
384.726898	1151.413574	7545.626953	1879.580200	11.387900
385.091553	1076.321289	7393.166992	1934.192627	13.580691
385.456238	1085.423462	7361.309570	1895.508789	12.907904
385.820862	1076.321289	7525.147461	2000.182739	14.326040
386.185425	1130.933838	7632.096680	1950.121338	12.600630
386.549988	1124.107300	7477.361328	1956.947876	13.108882
386.914490	1126.382813	7823.240723	1909.161987	11.688753
387.278961	1067.219238	7950.669922	1902.335449	12.132232
387.643372	1042.188477	7937.016602	1943.294800	13.069308
388.007782	1146.862427	7880.128418	1915.988525	11.422779
388.372101	1146.862427	7998.455566	1977.427612	12.122220
388.736450	1151.413574	7966.598145	1956.947876	11.819699
389.100739	1103.627563	8073.547852	1997.907227	12.830558
389.464966	1096.801025	7802.760742	1879.580200	11.672888
389.829163	1112.729614	7702.637695	1941.019287	12.569062
390.193329	1110.454102	7789.107910	1943.294800	12.470188
390.557495	1196.923950	7748.148438	1849.998413	9.968739
390.921570	1171.893188	7971.149414	1895.508789	10.642570
391.285614	1140.035889	8282.895508	1941.019287	11.213764
391.649597	1183.270874	8571.886719	1929.641602	10.101631
392.013550	1083.147949	8833.571289	1929.641602	10.921902
392.377502	1089.974487	9184.001953	2004.733887	11.301660
392.741455	1135.484863	9300.053711	2022.937988	10.869565
393.105316	1194.648438	9181.726563	2016.111450	10.284900
393.469086	1103.627563	8849.500000	2013.835938	11.750882
393.832886	1119.556274	8744.826172	1927.366089	10.593852
394.196655	1089.974487	9022.440430	2004.733887	11.531841
394.560333	1146.862427	9170.348633	2036.591064	11.089053
394.924042	1160.515625	9249.992188	1936.468262	9.592124
395.287659	1167.342163	9145.318359	2020.662476	10.695950
395.651245	1117.280762	9170.348633	1945.570313	10.285392
396.014771	1105.903076	8908.664063	1838.620850	9.390494
396.378296	1153.689087	8403.498047	1888.682251	10.138103
396.741791	1108.178589	8462.662109	1811.314575	9.560644
397.105255	1153.689087	8385.293945	1845.447388	9.565764
397.468628	1176.444214	8123.609375	1849.998413	9.695382
397.832001	1140.035889	8068.996582	1915.988525	11.198687
398.195313	1162.791138	8207.803711	1811.314575	9.205426
398.558624	1146.862427	8214.629883	1811.314575	9.401160
398.921844	1196.923950	8175.946289	1815.865601	8.868601
399.285095	1060.392700	8335.232422	1774.906250	9.821709
399.648254	1119.556274	8255.589844	1856.824951	10.331631
400.011383	1119.556274	8567.335938	1738.497925	8.310418
400.374451	1130.933838	8291.998047	1868.202637	10.295520
400.737549	1146.862427	8460.386719	1763.528564	8.431860
401.100586	1140.035889	8235.109375	1834.069824	9.781914
401.463562	1135.484863	8276.069336	1822.692139	9.623964
401.826508	1060.392700	8449.008789	1902.335449	11.395134
402.189392	1062.668213	8337.507813	1875.029175	11.166719
402.552246	1083.147949	8364.814453	1724.844727	8.812499
402.915070	1092.250000	8467.212891	1875.029175	10.614008
403.277893	1078.596802	8578.713867	1849.998413	10.285194
403.640656	1187.821899	8749.377930	1784.008301	7.884440
404.003326	1169.617676	9129.389648	1888.682251	9.033733
404.366028	1192.372925	9172.624023	1802.212524	7.641860
404.728699	1178.719727	9493.472656	1859.100464	8.182814
405.091248	1121.831787	9937.199219	1852.273926	8.286009
405.453857	1153.689087	9730.126953	1863.651489	8.278057
405.816345	1099.076538	9620.902344	1818.141113	8.437917
406.178833	1212.852539	9739.229492	1809.039063	6.992261
406.541260	1160.515625	9839.351563	1904.610962	8.573677
406.903687	1155.964600	9381.972656	1779.457275	7.579529
407.266052	1162.791138	9070.225586	1863.651489	8.863309
407.628387	1194.648438	9286.400391	1822.692139	7.761529
407.990662	1221.954712	8986.031250	1752.151001	6.828839
408.352905	1217.403687	9272.747070	1831.794189	7.627118
408.715118	1053.566162	9149.869141	1722.569214	8.263068
409.077332	1092.250000	8842.673828	1729.395752	8.220786
409.439484	1133.209351	8972.378906	1761.253052	8.011610
409.801575	1119.556274	9224.960938	1779.457275	8.141494
410.163605	1096.801025	9227.237305	1747.599976	8.004478
410.525635	1112.729614	9541.258789	1786.283813	7.991361
410.887604	1162.791138	9645.932617	1754.426514	6.974248
411.249573	1144.586914	9900.791016	1815.865601	7.666321
411.611481	1178.719727	9887.137695	1752.151001	6.584793
411.973328	1130.933838	9789.290039	1745.324463	7.095927
412.335144	1112.729614	9570.840820	1652.028076	6.376110
412.696930	1144.586914	9413.829102	1608.793213	5.613650
413.058685	1121.831787	9293.226563	1636.099487	6.293512
413.420410	1121.831787	9454.789063	1599.691162	5.734571
413.782104	1092.250000	9689.167969	1654.303589	6.537850
414.143707	1112.729614	9714.198242	1722.569214	7.089947
414.505310	1110.454102	9545.809570	1608.793213	5.907743
414.866852	1128.658325	9741.504883	1604.242188	5.521796
415.228394	1105.903076	9884.862305	1606.517700	5.702437
415.589874	1089.974487	10087.383789	1667.956787	6.423875
415.951324	1053.566162	10217.088867	1656.579102	6.580580
416.312683	1112.729614	10485.599609	1642.926025	5.656713
416.674072	1169.617676	10665.366211	1604.242188	4.577044
417.035370	1126.382813	10874.713867	1688.436401	5.765639
417.396667	1119.556274	11218.317383	1733.946899	6.083822
417.757935	1130.933838	11238.796875	1724.844727	5.875731
418.119141	1101.352051	11985.167969	1747.599976	5.937696
418.480286	1076.321289	11823.606445	1665.681274	5.483803
418.841400	1067.219238	12524.466797	1761.253052	6.057596
419.202484	1133.209351	12924.958008	1690.711914	4.727904
419.563568	1185.546387	13480.185547	1768.079712	4.738109
419.924591	1128.658325	14449.556641	1774.906250	4.851384
420.285553	1099.076538	14301.648438	1765.804199	5.049983
420.646484	1092.250000	15484.918945	1922.815063	5.770751
421.007355	1146.862427	15382.520508	1797.661377	4.571611
421.368225	1178.719727	16292.728516	1904.610962	4.802771
421.729065	1089.974487	16750.109375	1913.713013	5.260098
422.089874	1201.474976	17412.285156	2050.244141	5.235822
422.450592	1140.035889	17196.111328	1966.049927	5.144557
422.811279	1080.872437	17405.458984	1915.988525	5.115695
423.171936	1151.413574	17275.753906	1902.335449	4.657071
423.532593	1183.270874	16624.955078	1925.090576	4.804008
423.893127	1140.035889	16688.669922	1915.988525	4.990488
424.253723	1130.933838	17018.619141	1881.855713	4.726439
424.614197	1108.178589	17473.724609	1920.539551	4.963849
424.974670	1165.066650	17630.734375	1972.876587	4.906026
425.335052	1153.689087	18044.880859	2041.142212	5.253941
425.695496	1190.097412	17389.529297	2025.213501	5.155219
426.055817	1105.903076	17289.406250	1947.845825	5.202476
426.416168	1119.556274	17107.365234	1927.366089	5.052661
426.776398	1096.801025	16144.820313	1913.713013	5.428701
427.136627	1169.617676	15564.562500	1861.375977	4.805564
427.496826	1169.617676	15746.603516	1915.988525	5.120200
427.856995	1087.698975	14906.936523	1918.264038	6.010209
428.217102	1083.147949	14383.567383	1854.549438	5.799828
428.577179	1069.494751	14217.454102	1804.488037	5.590170
428.937195	1128.658325	13912.534180	1859.100464	5.713777
429.297180	1133.209351	13407.368164	1802.212524	5.450501
429.657135	1174.168701	13514.318359	1786.283813	4.960354
430.017059	1078.596802	13682.707031	1809.039063	5.795270
430.376984	1101.352051	13314.072266	1784.008301	5.589715
430.736786	1071.770264	13209.398438	1836.345337	6.299213
431.096588	1126.382813	13241.255859	1925.090576	6.592787
431.456360	1074.045776	13006.876953	1813.590088	6.197559
431.816071	1087.698975	12783.875977	1754.426514	5.700389
432.175781	1074.045776	12902.203125	1795.385864	6.098499
432.535400	1080.872437	12990.948242	1779.457275	5.865494
432.895020	1112.729614	12936.335938	1695.262939	4.926867
433.254578	1044.463989	13093.346680	1740.773438	5.779037
433.614105	1110.454102	13425.572266	1729.395752	5.025868
433.973602	1044.463989	13509.766602	1681.609863	5.111355
434.333038	1155.964600	13691.808594	1649.752563	3.939009
434.692444	1128.658325	13616.716797	1745.324463	4.938046
435.051819	1140.035889	13898.880859	1797.661377	5.154272
435.411133	1192.372925	13944.391602	1749.875488	4.371877
435.770416	1110.454102	13350.480469	1781.732788	5.484291
436.129669	1124.107300	13969.421875	1686.160889	4.375553
436.488861	1135.484863	13484.736328	1768.079712	5.122536
436.848083	1133.209351	13646.297852	1715.742676	4.655392
437.207184	1117.280762	13596.236328	1733.946899	4.941649
437.566254	1187.821899	13853.371094	1720.293701	4.204096
437.925293	1126.382813	13657.675781	1727.120239	4.793898
438.284363	1115.005249	13973.973633	1802.212524	5.344186
438.643311	1133.209351	14492.791992	1708.916138	4.309317
439.002258	1135.484863	14281.168945	1647.477051	3.894755
439.361145	1105.903076	14781.783203	1672.507813	4.143095
439.719971	1206.026001	15175.448242	1677.058838	3.371885
440.078827	1158.240112	15389.347656	1697.538574	3.789575
440.437592	1080.872437	15748.879883	1763.528564	4.654048
440.796295	1149.138062	16128.891602	1729.395752	3.873613
441.155029	1142.311401	17102.814453	1697.538574	3.478757
441.513672	1135.484863	17316.712891	1740.773438	3.740684
441.872253	1140.035889	17334.917969	1797.661377	4.060699
442.230865	1096.801025	16832.027344	1763.528564	4.237165
442.589386	1108.178589	16706.873047	1658.854614	3.530270
442.947876	1110.454102	16538.484375	1772.630737	4.292036
443.306335	1140.035889	16351.892578	1718.018188	3.799551
443.664764	1135.484863	15744.328125	1667.956787	3.644860
444.023102	1049.015137	16097.034180	1784.008301	4.884318
444.381500	1126.382813	15839.900391	1556.456177	2.922981
444.739777	1130.933838	15753.430664	1670.232300	3.688142
445.098022	1219.679199	16338.239258	1779.457275	3.702589
445.456238	1058.117188	15953.676758	1733.946899	4.537122
445.814423	1071.770264	16838.853516	1658.854614	3.723481
446.172577	1083.147949	17676.246094	1679.334351	3.592978
446.530701	1117.280762	17218.865234	1740.773438	3.872244
446.888733	1126.382813	18304.289063	1740.773438	3.576633
447.246765	1126.382813	19330.548828	1824.967651	3.837500
447.604736	1124.107300	18791.250000	1765.804199	3.632149
447.962677	1149.138062	18261.054688	1743.048950	3.470745
448.320587	1117.280762	19093.894531	1806.763550	3.835443
448.678436	1155.964600	18702.505859	1920.539551	4.357411
449.036255	1165.066650	18295.187500	1772.630737	3.546759
449.394043	1174.168701	17405.458984	1788.559326	3.785224
449.751770	1101.352051	17708.103516	1831.794189	4.398465
450.109467	1124.107300	16925.324219	1845.447388	4.565092
450.467163	1085.423462	16579.445313	1799.937012	4.611544
450.824768	1119.556274	16768.312500	1829.518677	4.536861
451.182343	1096.801025	16322.310547	1847.722900	4.931998
451.539886	1110.454102	15705.644531	1809.039063	4.786405
451.897369	1135.484863	16044.697266	1918.264038	5.250305
452.254822	1051.290649	15698.818359	1904.610962	5.825696
452.612274	1155.964600	16320.035156	1936.468262	5.147059
452.969635	1119.556274	16258.595703	1956.947876	5.531339
453.326965	1215.128052	16156.197266	1922.815063	4.736522
453.684326	1092.250000	15842.175781	1997.907227	6.140080
454.041534	1078.596802	15482.643555	2034.315552	6.635071
454.398773	1206.026001	15350.663086	1931.917114	5.131917
454.755951	1174.168701	14977.477539	2109.407715	6.775470
455.113098	1124.107300	14426.801758	2066.172852	7.081765
455.470215	1110.454102	14599.741211	2093.479248	7.287451
455.827240	1210.577026	14704.415039	2223.183838	7.504217
456.184265	1151.413574	14360.811523	2200.428711	7.941430
456.541260	1155.964600	14383.567383	2191.326416	7.827282
456.898193	1140.035889	14174.218750	2209.530762	8.205308
457.255096	1137.760376	14627.047852	2437.082764	9.632254
457.611969	1030.810913	14586.087891	2339.235352	9.652510
457.968781	1010.331238	14422.250977	2507.624023	11.163896
458.325531	1117.280762	14815.916016	2478.042236	9.933556
458.682312	1178.719727	15280.122070	2525.828125	9.553010
459.039001	1101.352051	16046.972656	2737.451416	10.947015
459.395630	1121.831787	16979.935547	2896.738037	11.192425
459.752289	1058.117188	18183.687500	3131.116699	12.104704
460.108856	1140.035889	19601.335938	3388.250488	12.177986
460.465363	1149.138062	20286.267578	3358.668701	11.545780
460.821899	1094.525513	20215.726563	3463.342773	12.388434
461.178345	1137.760376	19564.927734	3649.935303	13.632995
461.534760	1076.321289	19266.833984	3695.445801	14.398300
461.891144	1142.311401	18413.513672	3590.771729	14.176548
462.247467	1117.280762	17739.960938	3522.506104	14.469541
462.603760	1044.463989	17316.712891	3495.199951	15.060830
462.960052	1162.791138	16251.769531	3508.853027	15.548183
463.316254	1135.484863	16065.176758	3456.516113	15.546412
463.672424	1089.974487	15589.592773	3436.036377	16.180164
464.028564	1119.556274	15459.888672	3411.005615	15.979053
464.384644	1126.382813	14977.477539	3552.087891	17.512732
464.740723	1135.484863	15230.060547	3579.394287	17.339361
465.096741	1174.168701	15250.540039	3631.731201	17.458778
465.452698	1199.199463	15209.581055	3709.098877	17.914568
465.808655	1212.852539	15277.846680	3743.231689	17.990616
466.164520	1119.556274	15100.356445	3781.915527	19.042969
466.520355	1178.719727	15732.951172	4073.182129	19.887428
466.876190	1074.045776	15942.298828	4077.733398	20.202021
467.231964	1105.903076	15917.267578	4232.468750	21.109236
467.587677	1190.097412	16574.892578	4414.510254	20.958439
467.943390	1112.729614	16572.617188	4453.194336	21.607304
468.299011	1162.791138	16185.779297	4466.847168	21.993336
468.654633	1080.872437	15965.053711	4444.092285	22.595934
469.010223	1187.821899	16081.105469	4373.550781	21.390373
469.365723	1165.066650	15314.254883	4262.050293	21.888065
469.721191	1133.209351	15830.797852	4405.408203	22.263508
470.076660	1144.586914	14843.222656	4293.907715	22.990032
470.432068	1137.760376	15318.805664	4373.550781	22.817717
470.787445	1117.280762	15182.274414	4514.633301	24.154667
471.142792	1115.005249	15032.090820	4494.153809	24.280575
471.498016	1144.586914	15257.367188	4657.991211	24.895195
471.853271	1008.055725	15189.101563	4637.511230	25.593708
472.208496	1128.658325	15414.377930	4755.838379	25.390251
472.563660	1153.689087	15480.368164	4844.583984	25.762392
472.918762	1130.933838	15928.645508	4783.144531	24.680916
473.273865	1096.801025	16133.442383	5085.789063	26.528450
473.628876	1133.209351	16499.800781	5274.657227	26.950985
473.983917	1103.627563	16643.158203	5265.555176	26.782841
474.338837	1153.689087	16467.943359	5094.891113	25.735516
474.693787	1158.240112	16440.638672	5306.514648	27.144133
475.048645	1135.484863	16244.943359	5274.657227	27.394577
475.403503	1112.729614	16406.505859	5361.126953	27.778603
475.758270	1133.209351	16481.597656	5377.055664	27.650108
476.113037	1153.689087	16743.281250	5461.250000	27.631006
476.467773	1049.015137	17027.722656	5672.873535	28.937626
476.822418	1119.556274	17771.818359	5959.588867	29.065317
477.177063	1146.862427	17662.591797	5982.344238	29.278042
477.531647	1105.903076	18051.707031	6073.365234	29.313816
477.886200	1140.035889	18552.320313	6173.487793	28.907476
478.240723	1046.739624	19114.375000	6310.019043	29.130981
478.595184	1080.872437	18973.292969	6537.571289	30.497265
478.949585	1135.484863	19184.916016	6703.684082	30.849720
479.303986	1103.627563	19444.326172	6733.266113	30.694788
479.658325	1087.698975	19721.939453	6835.664551	30.846258
480.012634	1146.862427	19817.509766	6778.776367	30.164537
480.366913	1112.729614	20602.564453	7079.145020	30.612963
480.721130	1112.729614	20955.271484	7397.718262	31.674314
481.075317	1121.831787	21526.427734	7459.157227	31.058323
481.429474	1183.270874	22686.943359	7825.516113	30.888887
481.783569	1080.872437	23638.109375	8414.875977	32.512863
482.137604	1149.138062	24778.146484	8612.846680	31.587059
482.491669	1158.240112	26744.195313	9452.513672	32.417290
482.845612	1178.719727	29599.974609	10417.333984	32.506004
483.199554	1094.525513	33504.769531	11652.942383	32.577408
483.553436	1146.862427	39443.878906	13757.798828	32.929295
483.907318	1046.739624	45528.621094	16053.798828	33.737465
484.261139	1083.147949	52525.847656	18682.025391	34.210640
484.614899	1165.066650	54785.437500	20186.144531	35.473602
484.968628	1144.586914	54698.968750	20026.859375	35.258129
485.322357	1140.035889	52578.183594	18986.945313	34.695866
485.675964	1117.280762	48894.117188	17689.898438	34.687557
486.029572	1149.138062	45144.058594	16024.217773	33.810902
486.383148	1142.311401	41869.582031	14963.825195	33.936756
486.736694	1126.382813	39482.562500	14269.791016	34.266727
487.090149	1094.525513	39216.324219	14319.852539	34.692299
487.443604	1155.964600	40570.261719	14822.742188	34.674671
487.796997	1128.658325	42154.023438	15789.838867	35.736870
488.150360	1137.760376	43749.164063	16254.044922	35.474739
488.503693	1074.045776	44529.667969	16497.525391	35.492485
488.856964	1151.413574	43603.531250	16374.647461	35.859776
489.210175	1158.240112	41703.468750	15530.429688	35.447300
489.563416	1180.995239	39086.621094	14488.241211	35.106258
489.916565	1119.556274	36440.191406	13564.379883	35.233860
490.269653	1151.413574	34512.824219	13163.887695	36.007095
490.622772	1144.586914	33174.816406	12856.692383	36.565784
490.975769	1112.729614	33325.003906	12488.058594	35.313648
491.328735	1137.760376	34594.742188	13238.980469	36.169491
491.681732	1153.689087	36667.742188	13953.493164	36.041515
492.034607	1194.648438	39036.558594	14945.621094	36.337944
492.387482	1124.107300	39782.929688	15298.326172	36.664898
492.740326	1137.760376	39100.273438	15093.529297	36.761974
493.093079	1187.821899	36749.660156	14363.086914	37.048885
493.445862	1115.005249	33957.597656	13145.683594	36.631329
493.798523	1071.770264	31388.533203	12230.923828	36.808525
494.151215	1119.556274	29106.187500	11409.460938	36.767212
494.503815	1087.698975	26964.921875	10485.599609	36.317268
494.856384	1142.311401	25442.597656	10226.190430	37.381775
495.208923	1187.821899	24259.328125	9909.893555	37.804516
495.561432	1178.719727	23515.232422	9509.401367	37.296253
495.913879	1165.066650	23048.750000	9368.319336	37.485703
496.266296	1235.607788	23487.925781	9532.156250	37.283974
496.618683	1251.536499	23324.087891	9529.880859	37.505157
496.970978	1151.413574	24104.591797	9834.800781	37.830868
497.323273	1153.689087	24425.439453	9864.382813	37.430332
497.675507	1140.035889	24709.880859	9939.474609	37.333458
498.027710	1192.372925	24316.214844	9959.954102	37.915764
498.379852	1187.821899	24245.673828	9843.903320	37.540710
498.731995	1080.872437	23920.275391	9812.045898	38.228558
499.084076	1101.352051	23738.232422	9538.983398	37.273823
499.436096	1094.525513	23080.607422	9513.952148	38.294350
499.788086	1135.484863	22759.759766	9386.523438	38.156372
500.140106	1144.586914	22413.880859	9127.114258	37.530762
500.491943	1137.760376	21546.906250	8999.684570	38.521572
500.843842	1160.515625	21649.304688	8892.735352	37.738785
501.195679	1128.658325	21137.312500	8767.582031	38.178101
501.547455	1183.270874	20657.177734	8674.285156	38.466930
501.899231	1158.240112	20632.146484	8699.316406	38.724003
502.250885	1080.872437	20236.207031	8628.774414	39.403656
502.602600	1121.831787	20402.320313	8476.315430	38.144695
502.954193	1187.821899	20495.615234	8633.326172	38.562172
503.305786	1124.107300	19992.726563	8501.345703	39.097923
503.657379	1124.107300	20693.585938	8601.468750	38.209305
504.008820	1155.964600	20154.287109	8637.876953	39.381962
504.360291	1133.209351	20770.953125	8542.304688	37.728851
504.711700	1165.066650	20529.748047	8883.632813	39.858990
505.063080	1110.454102	20634.421875	8699.316406	38.869465
505.414368	1078.596802	20566.156250	8719.795898	39.210655
505.765656	1101.352051	20588.912109	8731.172852	39.152264
506.116943	1064.943726	20748.199219	8662.907227	38.601151
506.468109	1115.005249	20340.880859	8544.581055	38.643627
506.819305	1146.862427	20552.503906	8599.193359	38.402912
507.170410	1023.984375	20450.105469	8690.213867	39.463512
507.521484	1158.240112	20181.593750	8569.611328	38.959332
507.872559	1119.556274	20670.830078	8728.897461	38.919926
508.223480	1146.862427	20948.445313	8740.275391	38.347507
508.574493	1126.382813	20786.882813	8683.387695	38.437500
508.925385	1142.311401	21239.710938	8967.827148	38.937950
509.276245	1124.107300	21319.353516	8961.000977	38.805634
509.627045	1076.321289	21694.814453	9143.042969	39.123722
509.977814	1142.311401	21838.173828	9315.982422	39.494225
510.328613	1203.750488	22147.644531	9008.787109	37.266407
510.679260	1067.219238	22143.093750	9447.961914	39.764622
511.029999	1103.627563	22161.296875	9655.035156	40.609467
511.380585	1080.872437	22352.441406	9595.871094	40.029953
511.731140	1103.627563	22800.718750	9498.023438	38.689034
512.081726	1083.147949	22805.269531	9643.657227	39.409180
512.432129	1105.903076	23094.259766	9691.443359	39.045845
512.782654	1121.831787	23285.404297	9841.627930	39.342918
513.133057	1055.841675	23278.578125	9939.474609	39.975422
513.483398	1085.423462	23226.240234	9975.882813	40.154160
513.833801	1110.454102	23260.373047	9848.454102	39.449356
514.183960	1101.352051	22805.269531	10030.496094	41.140705
514.534302	1155.964600	22834.851563	9645.932617	39.162380
514.884460	1158.240112	22802.994141	9748.331055	39.686710
515.234619	1062.668213	22468.492188	9707.372070	40.384823
515.584717	1160.515625	22641.431641	9668.687500	39.608051
515.934753	1119.556274	22643.707031	9702.820313	39.877365
516.284851	1149.138062	22748.380859	9741.504883	39.780872
516.634766	1126.382813	23194.382813	9898.515625	39.750465
516.984741	1121.831787	23303.609375	9816.596680	39.197781
517.334595	1126.382813	24143.275391	10050.975586	38.774097
517.684448	1085.423462	24732.634766	10471.946289	39.693993
518.034363	1064.943726	25954.589844	10829.203125	39.230206
518.384094	1042.188477	26737.369141	11568.748047	40.967060
518.733826	1142.311401	27900.160156	11723.483398	39.544178
519.083496	1085.423462	28473.591797	12105.770508	40.237617
519.433167	1135.484863	28915.042969	12135.352539	39.596985
519.782776	1074.045776	28612.398438	12137.627930	40.175175
520.132324	1176.444214	28029.865234	11848.636719	39.742393
520.481873	1101.352051	27360.861328	11673.421875	40.259968
520.831299	1108.178589	27162.892578	11250.174805	38.925762
521.180786	1076.321289	26350.531250	11334.369141	40.587017
521.530151	1199.199463	25938.662109	10913.397461	39.266003
521.879517	1180.995239	25390.261719	10849.683594	39.937965
522.228882	1083.147949	25151.332031	10870.163086	40.663708
522.578064	1167.342163	25126.300781	10660.815430	39.623898
522.927307	1135.484863	25472.179688	10738.182617	39.457687
523.276489	1103.627563	25560.925781	10592.549805	38.797913
523.625610	1108.178589	25438.046875	10949.805664	40.450802
523.974792	1171.893188	26264.060547	10790.519531	38.333179
524.323792	1099.076538	26710.062500	11206.940430	39.466908
524.672852	1105.903076	27165.167969	11439.042969	39.652458
525.021790	1096.801025	28248.314453	11919.177734	39.859203
525.370728	1058.117188	29233.615234	12351.527344	40.082378
525.719604	1169.617676	30553.417969	12858.967773	39.781612
526.068420	1135.484863	32644.621094	13575.756836	39.481472
526.417297	1096.801025	34030.414063	14096.851563	39.473503
526.765991	1160.515625	34663.007813	14672.558594	40.331455
527.114746	1185.546387	35834.902344	15084.427734	40.112957
527.463379	1160.515625	37136.500000	15607.796875	40.158127
527.812012	1099.076538	38902.304688	16379.198242	40.420155
528.160706	1199.199463	42383.851563	17842.359375	40.411072
528.509155	1169.617676	47483.292969	19678.703125	39.964622
528.857727	1115.005249	52282.367188	22220.460938	41.247887
529.206177	1121.831787	54940.175781	23597.150391	41.761444
529.554565	1142.311401	55174.554688	24143.275391	42.568962
529.902893	1105.903076	54275.722656	22975.933594	41.132416
530.251221	1069.494751	51479.105469	21738.050781	41.001225
530.599548	1115.005249	47713.121094	19787.929688	40.072269
530.947876	1135.484863	43594.425781	18051.707031	39.841366
531.296021	1112.729614	40638.527344	16763.761719	39.597008
531.644165	1174.168701	37584.777344	15930.920898	40.528713
531.992249	1208.301514	35803.042969	14786.333984	39.248833
532.340454	1083.147949	34674.386719	14704.415039	40.550060
532.688354	1108.178589	35291.050781	14706.691406	39.781658
533.036438	1146.862427	36283.179688	15100.356445	39.712456
533.384338	1080.872437	39011.527344	15801.216797	38.808567
533.732239	1108.178589	40265.339844	16793.343750	40.056953
534.080139	1137.760376	40834.222656	16986.763672	39.925480
534.427917	1155.964600	40515.648438	16661.363281	39.394112
534.775757	1112.729614	38656.546875	16033.319336	39.741802
535.123474	1137.760376	37095.539063	15145.866211	38.957096
535.471191	1105.903076	35163.621094	14504.169922	39.339882
535.818848	1074.045776	33934.839844	14092.300781	39.616375
536.166382	1153.689087	32382.937500	13457.429688	39.398132
536.513977	1085.423462	33274.941406	13393.715820	38.236958
536.861511	1162.791138	33434.226563	13664.501953	38.739246
537.208984	1119.556274	33304.523438	13710.012695	39.119061
537.556396	1192.372925	33095.175781	13559.828125	38.766045
537.903809	1135.484863	32223.650391	13345.929688	39.276829
538.251160	1089.974487	31240.625000	13209.398438	40.196228
538.598389	1096.801025	29882.138672	12431.169922	39.375496
538.945740	1119.556274	28824.021484	12085.291016	39.581108
539.292969	1142.311401	28339.335938	11796.299805	39.173359
539.640137	1076.321289	28155.019531	11664.319336	39.100838
539.987244	1044.463989	28550.958984	11912.351563	39.510262
540.334351	1039.912964	29033.369141	12228.648438	39.969109
540.681458	1124.107300	30942.531250	12963.641602	39.705433
541.028442	1096.801025	33534.351563	13985.350586	39.733425
541.375366	1176.444214	36943.082031	15337.009766	39.591549
541.722290	1121.831787	39619.093750	16898.017578	40.980019
542.069153	1176.444214	42015.214844	17111.916016	39.020451
542.416016	1146.862427	42156.296875	17507.857422	39.895687
542.762756	1108.178589	41064.046875	17023.171875	39.831429
543.109558	1180.995239	39605.441406	16636.332031	40.222668
543.456299	1137.760376	37878.320313	15789.838867	39.879845
543.802917	1210.577026	36447.015625	14936.518555	38.953827
544.149536	1135.484863	34667.558594	14181.045898	38.904724
544.496094	1101.352051	32546.773438	13411.919922	39.149002
544.842651	1099.076538	30812.828125	12674.650391	38.956959
545.189148	1167.342163	29743.332031	12283.261719	38.899509
545.535583	1215.128052	28282.447266	12085.291016	40.159733
545.882019	1087.698975	27381.341797	11432.216797	39.342278
546.228333	1183.270874	27265.291016	11457.247070	39.391033
546.574707	1133.209351	27069.595703	11361.675781	39.436745
546.920898	1153.689087	27599.791016	11509.583984	39.158493
547.267212	1110.454102	27458.708984	11375.328125	38.958462
547.613342	1103.627563	27080.972656	11322.991211	39.339520
547.959473	1119.556274	26885.277344	10831.479492	37.693192
548.305664	1112.729614	26543.949219	10895.193359	38.466358
548.651611	1142.311401	25108.095703	10405.957031	38.653629
548.997742	1169.617676	24191.062500	10021.393555	38.450130
549.343689	1160.515625	23535.710938	9755.157227	38.411472
549.689575	1171.893188	22388.849609	9040.644531	37.087090
550.035522	1119.556274	21612.896484	8899.561523	37.963581
550.381287	1128.658325	20616.218750	8842.673828	39.584305
550.727173	1133.209351	20714.066406	8410.325195	37.164440
551.072876	1089.974487	20095.125000	8080.374512	36.781609
551.418640	1108.178589	19815.234375	8180.497070	37.805618
551.764282	1117.280762	19621.816406	8082.649902	37.641415
552.109863	1112.729614	20026.859375	8353.436523	38.282001
552.455505	1121.831787	19908.531250	8091.751953	37.100288
552.801025	1119.556274	20322.675781	8166.844238	36.698662
553.146545	1085.423462	20593.462891	8257.865234	36.766598
553.491943	1101.352051	20880.179688	8410.325195	36.953518
553.837341	1087.698975	20718.617188	8355.711914	37.023296
554.182800	1117.280762	20700.412109	8408.049805	37.229843
554.528015	1055.841675	20149.736328	8078.098633	36.777500
554.873352	1099.076538	20015.480469	7889.230469	35.895584
555.218628	1099.076538	19596.785156	7709.464355	35.736252
555.563721	1133.209351	19296.416016	7802.760742	36.720119
555.908875	1092.250000	18971.017578	7597.963867	36.387932
556.254028	1094.525513	18832.210938	7352.207520	35.279022
556.599121	1192.372925	18465.851563	7579.759766	36.978001
556.944031	1165.066650	18097.216797	7331.728027	36.419834
557.289063	1108.178589	18302.013672	7324.901367	36.156693
557.633972	1146.862427	17985.716797	7183.819336	35.851353
557.978882	1142.311401	18015.298828	7158.788574	35.657448
558.323792	1155.964600	17908.349609	7181.543457	35.968487
558.668518	1160.515625	17667.142578	6917.583008	34.877308
559.013306	1212.852539	17660.316406	7088.247070	35.722191
559.358032	1155.964600	17676.246094	6938.062988	35.000000
559.702637	1126.382813	17710.378906	7015.430664	35.510426
560.047363	1067.219238	17621.632813	6935.787598	35.450172
560.391846	1076.321289	17455.519531	6858.419922	35.301476
560.736450	1146.862427	17512.408203	6910.756836	35.219688
561.080933	1099.076538	17569.296875	6908.480957	35.272171
561.425354	1121.831787	17928.828125	6963.093750	34.754940
561.769775	1064.943726	17928.828125	6924.409668	34.745647
562.114136	1174.168701	18010.748047	6910.756836	34.072166
562.458496	1158.240112	17928.828125	6924.409668	34.382633
562.802673	1126.382813	18158.656250	6994.951172	34.455578
563.146912	1133.209351	17931.103516	6972.195801	34.760227
563.491150	1103.627563	17585.224609	6862.970703	34.944084
563.835266	1142.311401	17539.714844	6942.613770	35.373295
564.179443	1169.617676	17751.337891	6913.032227	34.637024
564.523438	1142.311401	17612.531250	6876.624023	34.816246
564.867493	1101.352051	17628.458984	6917.583008	35.192070
565.211426	1162.791138	18129.074219	6903.930176	33.838520
565.555359	1071.770264	18024.400391	6876.624023	34.241608
565.899231	1089.974487	18468.126953	7029.083984	34.175724
566.243042	1149.138062	19139.406250	7208.850098	33.683277
566.586914	1144.586914	19542.171875	7409.095703	34.050713
566.930603	1087.698975	19894.878906	7516.045410	34.180279
567.274292	1099.076538	19965.419922	7359.034180	33.180553
567.617981	1094.525513	19954.041016	7409.095703	33.482143
567.961609	1165.066650	19665.050781	7308.972656	33.210331
568.305237	1133.209351	19423.845703	6944.889648	31.774073
568.648682	1071.770264	18875.445313	7051.838867	33.588955
568.992188	1128.658325	18531.841797	6910.756836	33.224373
569.335632	1076.321289	18513.636719	6851.593262	33.120190
569.679016	1135.484863	18495.433594	6778.776367	32.507534
570.022461	1142.311401	18245.125000	6705.959961	32.530602
570.365662	1130.933838	18504.535156	6806.082520	32.665356
570.708984	1110.454102	18208.716797	6778.776367	33.151455
571.052185	1099.076538	18481.779297	6671.827148	32.059170
571.395386	1089.974487	18595.556641	7081.420898	34.225918
571.738525	1103.627563	19339.650391	6994.951172	32.305965
572.081604	1133.209351	19569.478516	7279.391113	33.337448
572.424683	1153.689087	19792.480469	7167.890625	32.267124
572.767578	1099.076538	20115.603516	7140.584473	31.769773
573.110596	1087.698975	19899.429688	7151.961914	32.236603
573.453552	1115.005249	19853.919922	7154.237305	32.228291
573.796387	1133.209351	19369.232422	7006.328613	32.206139
574.139282	1096.801025	19578.580078	7006.328613	31.974884
574.481995	1178.719727	19200.843750	6933.511719	31.931818
574.824768	1101.352051	19157.609375	6892.552734	32.073093
575.167480	1094.525513	19023.353516	6837.939941	32.034523
575.510132	1103.627563	18918.679688	6712.786133	31.485502
575.852722	1117.280762	18977.843750	6790.154297	31.762009
576.195251	1144.586914	18927.781250	6601.285645	30.684580
576.537842	1140.035889	18695.679688	6539.846680	30.758259
576.880188	1149.138062	18390.759766	6530.744629	31.212879
577.222717	1103.627563	17937.929688	6457.928223	31.805895
577.565063	1083.147949	17476.000000	6294.090332	31.787895
577.907410	1165.066650	17466.898438	6100.671387	30.276379
578.249756	1128.658325	17095.988281	5959.588867	30.255095
578.591919	1117.280762	16431.535156	5868.568359	31.025263
578.934204	1124.107300	16374.647461	5741.139160	30.274546
579.276306	1130.933838	16097.034180	5697.904297	30.515434
579.618469	1083.147949	15471.265625	5395.259766	29.969952
579.960571	1124.107300	15482.643555	5433.943848	30.015848
580.302551	1089.974487	15268.744141	5490.831543	31.038355
580.644531	1126.382813	15102.631836	5474.902832	31.113642
580.986511	1112.729614	14763.579102	5504.484863	32.172031
581.328369	1085.423462	14827.293945	5201.840332	29.955290
581.670227	1183.270874	14733.997070	5190.462891	29.571787
582.012024	1144.586914	14688.486328	5069.860352	28.981855
582.353821	1201.474976	14658.905273	4896.920898	27.460262
582.695496	1112.729614	14447.281250	5040.278809	29.453928
583.037231	1158.240112	14545.128906	4951.533203	28.335882
583.378845	1206.026001	14531.475586	4892.369629	27.663937
583.720398	1169.617676	14249.311523	4828.655273	27.974949
584.062012	1155.964600	14526.924805	4780.869141	27.110279
584.403442	1140.035889	14069.544922	4812.726563	28.405493
584.744934	1155.964600	14026.310547	4855.961426	28.748232
585.086365	1115.005249	14217.454102	4842.308105	28.447374
585.427734	1112.729614	14235.658203	4890.094238	28.784464
585.768982	1231.056763	14231.107422	4840.032715	27.761246
586.110291	1126.382813	14003.554688	4819.553223	28.679981
586.451599	1130.933838	13896.605469	4739.909668	28.270943
586.792725	1174.168701	14146.913086	4714.878906	27.293455
587.133850	1046.739624	13960.320313	4648.889160	27.894272
587.474915	1126.382813	14237.933594	4714.878906	27.368967
587.815979	1103.627563	14028.585938	4708.052734	27.887327
588.157043	1171.893188	14078.647461	4635.235840	26.833569
588.497925	1103.627563	14046.790039	4537.388672	26.529539
588.838867	1103.627563	14283.444336	4726.256836	27.486191
589.179749	1174.168701	14231.107422	4708.052734	27.065182
589.520569	1178.719727	14551.955078	4673.919922	26.135786
589.861450	1160.515625	14724.895508	4705.776855	26.136553
590.202087	1124.107300	14472.312500	4651.164551	26.423456
590.542847	1169.617676	14840.946289	4637.511230	25.366179
590.883484	1137.760376	14772.680664	4714.878906	26.234982
591.224121	1194.648438	14504.169922	4587.449707	25.491535
591.564636	1094.525513	14820.466797	4623.858398	25.712866
591.905151	1037.637451	14292.545898	4544.214844	26.454935
592.245667	1051.290649	14328.954102	4398.581543	25.209940
592.585999	1142.311401	14410.873047	4373.550781	24.352596
592.926453	1105.903076	14035.412109	4387.204102	25.378389
593.266724	1126.382813	14215.178711	4189.233887	23.400557
593.607056	1121.831787	14235.658203	4316.663086	24.362312
593.947388	1117.280762	14328.954102	4387.204102	24.750257
594.287476	1089.974487	14292.545898	4300.734375	24.319201
594.627686	1121.831787	14465.485352	4403.132813	24.590725
594.967773	1187.821899	14479.138672	4403.132813	24.191065
595.307861	1178.719727	14845.498047	4507.806641	24.358974
595.647888	1115.005249	14863.702148	4275.703613	22.989075
595.987854	1158.240112	15132.212891	4473.673828	23.725777
596.327820	1110.454102	15311.979492	4510.082031	23.938471
596.667725	1099.076538	15637.378906	4482.775879	23.274376
597.007568	1212.852539	16265.422852	4648.889160	22.826910
597.347351	1169.617676	16731.904297	4855.961426	23.687674
597.687073	1085.423462	17212.039063	4796.797852	23.013971
598.026794	1133.209351	16802.445313	4717.154785	22.872496
598.366455	1151.413574	16513.455078	4660.266602	22.841061
598.706116	1146.862427	16147.095703	4571.521484	22.830706
599.045654	1169.617676	15664.685547	4341.693848	21.883831
599.385193	1155.964600	15022.988281	4266.601563	22.431900
599.724731	1171.893188	14426.801758	4029.947266	21.562233
600.064087	1083.147949	14454.108398	3975.334961	21.630360
600.403564	1105.903076	13992.177734	3936.650879	21.967154
600.742920	1085.423462	13782.829102	3838.803711	21.684591
601.082153	1130.933838	13744.145508	3802.395264	21.179867
601.421387	1151.413574	13430.124023	3731.854004	21.015564
601.760620	1055.841675	13512.042969	3699.996826	21.227621
602.099854	1064.943726	13703.186523	3866.109863	22.164204
602.438843	1149.138062	13628.093750	3704.547852	20.477753
602.778015	1149.138062	13999.003906	3743.231689	20.187710
603.117065	1089.974487	14080.922852	3752.333740	20.493958
603.456055	1060.392700	14711.242188	3950.304199	21.170197
603.794983	1096.801025	14838.670898	3952.579590	20.781586
604.133850	1133.209351	15560.011719	4209.713379	21.324919
604.472778	1142.311401	15817.145508	4300.734375	21.522717
604.811584	1183.270874	16552.138672	4314.387207	20.373108
605.150330	1119.556274	16811.546875	4391.755371	20.852673
605.489075	1130.933838	17082.333984	4312.111816	19.942938
605.827698	1094.525513	16731.904297	4328.040527	20.678114
606.166382	1119.556274	16652.261719	4232.468750	20.041021
606.504883	1124.107300	16165.299805	4250.672852	20.786686
606.843445	976.198425	15616.899414	3982.161377	20.531549
607.181946	1140.035889	15318.805664	3827.426025	18.953621
607.520386	1165.066650	14349.434570	3768.262451	19.744562
607.858826	1162.791138	14301.648438	3861.558838	20.540352
608.197083	1149.138062	13958.044922	3674.966064	19.719311
608.535461	1085.423462	13776.002930	3595.322754	19.777658
608.873718	1146.862427	13821.513672	3570.292236	19.120287
609.211914	1146.862427	14404.046875	3699.996826	19.258495
609.550171	1080.872437	14615.669922	3747.782715	19.704100
609.888245	1144.586914	14986.580078	3761.435791	18.905146
610.226318	1092.250000	15396.173828	3809.221924	18.994591
610.564392	1190.097412	15530.429688	3779.640137	18.057760
610.902344	1144.586914	15177.723633	3843.354736	19.231394
611.240295	1133.209351	15054.845703	3636.282227	17.979731
611.578247	1101.352051	14338.056641	3672.690674	19.425821
611.916138	1089.974487	14476.863281	3517.955078	18.137003
612.253845	1146.862427	13826.064453	3556.638916	19.005741
612.591675	1117.280762	13537.073242	3565.741211	19.714180
612.929382	1160.515625	13461.981445	3517.955078	19.163891
613.267090	1142.311401	12990.948242	3292.678711	18.148647
613.604736	1144.586914	12947.712891	3297.229736	18.237904
613.942261	1133.209351	12485.782227	3283.576416	18.941671
614.279785	1046.739624	12474.405273	3231.239502	19.115889
614.617310	1130.933838	12137.627930	3315.433838	19.847012
614.954712	1085.423462	12267.333008	3185.729004	18.783068
615.292175	1178.719727	12078.464844	3283.576416	19.311064
615.629517	1187.821899	11969.239258	3087.881836	17.623472
615.966797	1183.270874	12060.259766	3133.392090	17.928869
616.304138	1103.627563	11980.617188	3096.983887	18.326361
616.641296	1119.556274	11932.831055	3172.075928	18.981480
616.978516	1130.933838	12060.259766	3142.494141	18.405163
617.315552	1201.474976	11989.718750	3108.361328	17.675594
617.652771	1235.607788	11841.810547	3124.290039	17.807337
617.989685	1124.107300	12094.392578	3194.831299	18.875755
618.326721	1121.831787	11855.462891	3074.228516	18.189528
618.663696	1142.311401	12078.464844	3078.779541	17.707031
619.000549	1103.627563	12101.219727	3067.402100	17.856405
619.337463	1142.311401	11989.718750	3081.055176	17.872877
619.674194	1162.791138	11960.137695	3042.371338	17.407797
620.010986	1171.893188	11828.157227	3001.411865	17.168482
620.347778	1033.086426	11966.963867	3147.045166	19.334026
620.684387	1110.454102	11878.218750	3049.197754	18.005072
621.020996	1101.352051	11534.615234	3065.126465	18.822245
621.357605	1117.280762	11923.728516	3090.157227	18.256475
621.694214	1087.698975	11439.042969	3083.330566	19.278961
622.030579	1094.525513	11439.042969	3108.361328	19.467663
622.367065	1128.658325	11484.553711	3012.789551	18.193804
622.703430	1144.586914	11468.625000	2917.217773	17.169937
623.039795	1051.290649	11532.339844	2953.625977	18.150238
623.376160	1035.361938	11386.706055	2942.248291	18.421631
623.712402	1099.076538	11461.797852	3051.473389	18.840580
624.048645	1151.413574	11464.074219	2883.084961	16.791704
624.384766	1115.005249	11131.847656	2933.146240	18.150839
624.720886	1019.433350	11361.675781	2921.768799	18.393839
625.057007	1094.525513	11361.675781	2996.860840	18.528368
625.392944	1153.689087	11429.941406	3033.269287	18.290524
625.729004	1096.801025	11468.625000	3042.371338	18.758226
626.064941	1140.035889	11618.809570	2990.034424	17.654724
626.400818	1151.413574	11903.249023	2974.105713	16.952381
626.736633	1110.454102	12087.566406	3035.544678	17.537313
627.072449	1128.658325	12210.444336	3128.841064	18.049282
627.408264	1085.423462	12503.986328	3042.371338	17.138304
627.743896	1028.535400	12376.557617	3181.177979	18.969318
628.079590	1142.311401	12613.211914	3119.739014	17.238644
628.415161	1162.791138	12365.179688	3087.881836	17.184645
628.750793	1162.791138	12296.914063	3110.636963	17.494381
629.086365	1151.413574	12055.708984	3112.912354	17.988314
629.421753	1155.964600	11778.095703	2955.901611	16.945160
629.757263	1133.209351	11693.901367	2958.177002	17.280758
630.092651	1146.862427	11607.431641	2987.758789	17.598434
630.427917	1185.546387	11275.206055	2949.074951	17.478573
630.763184	1167.342163	11077.235352	2858.054199	17.060850
631.098511	1144.586914	11245.624023	2812.543701	16.512728
631.433716	1067.219238	10911.122070	2917.217773	18.793344
631.768799	1128.658325	10931.601563	2960.452637	18.686167
632.103943	1142.311401	10745.008789	2789.788574	17.156401
632.438965	1089.974487	10380.925781	2744.278076	17.805534
632.773987	1099.076538	10471.946289	2805.717041	18.208302
633.109070	1087.698975	10606.202148	2855.778564	18.575186
633.443848	1074.045776	10362.721680	2864.880615	19.279764
633.778870	1176.444214	10658.539063	2773.859863	16.846653
634.113708	1194.648438	10704.049805	2812.543701	17.013639
634.448425	1121.831787	10683.570313	2773.859863	17.277487
634.783264	1142.311401	10487.875000	2789.788574	17.628441
635.117859	1119.556274	10547.039063	2844.401123	18.295921
635.452576	1064.943726	10567.518555	2753.380127	17.768198
635.787170	1126.382813	10430.987305	2753.380127	17.485937
636.121704	1089.974487	10253.497070	2767.033203	18.301464
636.456177	1137.760376	10351.343750	2805.717041	18.103235
636.790588	1135.484863	10141.996094	2810.268311	18.595251
637.125122	1069.494751	9987.260742	2662.359375	17.861700
637.459412	1167.342163	9891.688477	2689.665527	17.449139
637.793762	1140.035889	9868.933594	2653.257324	17.335768
638.128052	1099.076538	9443.411133	2596.369141	17.943821
638.462280	1206.026001	9602.698242	2559.960938	16.124662
638.796509	1162.791138	9736.953125	2559.960938	16.295118
639.130615	1124.107300	9520.779297	2525.828125	16.693768
639.464722	1137.760376	9306.879883	2553.134277	17.325905
639.798767	1133.209351	9318.257813	2423.429688	15.763137
640.132751	1160.515625	9482.094727	2516.726074	16.297514
640.466736	1076.321289	9095.256836	2482.593262	17.536890
640.800598	1121.831787	9143.042969	2548.583252	17.787233
641.134521	1071.770264	9088.429688	2421.154053	16.832247
641.468262	1119.556274	9092.981445	2412.052002	16.210043
641.802063	1021.708862	8972.378906	2466.664551	18.174011
642.135803	1117.280762	8954.174805	2500.797363	17.653889
642.469421	1162.791138	8692.489258	2480.317627	17.497732
642.803101	1074.045776	8840.398438	2391.572266	16.964546
643.136658	1119.556274	8753.928711	2396.123291	16.721310
643.470215	1149.138062	8758.479492	2480.317627	17.494019
643.803711	1221.954712	8621.948242	2430.256104	16.328411
644.137085	1137.760376	8535.478516	2491.695313	18.302061
644.470581	1117.280762	8742.550781	2446.184814	17.427633
644.803833	1103.627563	8464.937500	2509.899414	19.103554
645.137207	1160.515625	8692.489258	2484.868652	17.583080
645.470459	1105.903076	8560.508789	2327.857666	16.391941
645.803589	1128.658325	8585.540039	2348.337402	16.356422
646.136780	1110.454102	8644.703125	2402.949951	17.154940
646.469849	1137.760376	8849.500000	2384.745850	16.169964
646.802979	1140.035889	8642.427734	2382.470215	16.560511
647.135986	1219.679199	8546.856445	2346.062012	15.372670
647.468994	1094.525513	8756.204102	2412.052002	17.196316
647.801941	1167.342163	8706.142578	2480.317627	17.416239
648.134766	1190.097412	8697.040039	2359.715088	15.580481
648.467651	1149.138062	8756.204102	2416.603027	16.661680
648.800354	1071.770264	8699.316406	2371.092773	17.034607
649.133179	1140.035889	8758.479492	2325.582275	15.561530
649.465881	1108.178589	8549.131836	2418.878662	17.614679
649.798462	1101.352051	8715.245117	2368.817139	16.646742
650.131104	1078.596802	8640.152344	2273.245361	15.798979
650.463623	1240.158813	8694.764648	2323.306641	14.529914
650.796143	1144.586914	8496.794922	2421.154053	17.363045
651.128662	1108.178589	8694.764648	2396.123291	16.976604
651.461060	1144.586914	8617.397461	2368.817139	16.382460
651.793396	1064.943726	8710.693359	2489.419678	18.630953
652.125732	1089.974487	8715.245117	2462.113525	17.994627
652.458008	1076.321289	8599.193359	2414.327637	17.785845
652.790222	1069.494751	8744.826172	2341.510986	16.572786
653.122437	1099.076538	8580.989258	2443.909424	17.974453
653.454529	1144.586914	8628.774414	2489.419678	17.968988
653.786621	1099.076538	8683.387695	2398.398926	17.131712
654.118713	1162.791138	8569.611328	2402.949951	16.743471
654.450623	1096.801025	8590.090820	2373.368164	17.036137
654.782654	1162.791138	8499.070313	2391.572266	16.749378
655.114502	1140.035889	8417.151367	2359.715088	16.760477
655.446350	1201.474976	8351.161133	2400.674561	16.772758
655.778198	1178.719727	8239.661133	2380.194824	17.015793
656.109863	1124.107300	8262.416016	2364.266113	17.373287
656.441650	1180.995239	8278.344727	2250.489990	15.068932
656.773254	1171.893188	8244.211914	2264.143311	15.444017
657.104919	1140.035889	8205.528320	2427.980713	18.228664
657.436462	1135.484863	8112.231445	2371.092773	17.710375
657.767944	1042.188477	8328.406250	2432.531738	19.081823
658.099548	1044.463989	8362.539063	2346.062012	17.786070
658.430908	1069.494751	8367.089844	2491.695313	19.488619
658.762268	1119.556274	8512.723633	2446.184814	17.943981
659.093628	1037.637451	8867.704102	2528.103516	19.035166
659.424927	1094.525513	9081.603516	2612.297852	19.002848
659.756226	1119.556274	9586.769531	2582.716064	17.280300
660.087341	1092.250000	9743.780273	2648.706299	17.990532
660.418518	1103.627563	9686.891602	2584.991699	17.258751
660.749573	1140.035889	9627.728516	2671.461426	18.042896
661.080627	1140.035889	9527.605469	2550.858887	16.820404
661.411621	1119.556274	9552.636719	2557.685303	17.053425
661.742554	1089.974487	9104.358398	2532.654541	18.001135
662.073547	1099.076538	9038.368164	2457.562500	17.110922
662.404297	1151.413574	8956.450195	2496.246338	17.230320
662.735229	1153.689087	8631.050781	2462.113525	17.498478
663.065979	1094.525513	8378.467773	2453.011475	18.650421
663.396667	1135.484863	8264.691406	2405.225586	17.810408
663.727417	1119.556274	8028.037598	2343.786377	17.720682
664.057922	1151.413574	7952.945313	2346.062012	17.564404
664.388611	1124.107300	7927.914551	2357.439453	18.127089
664.719116	1133.209351	7805.036133	2307.378174	17.598911
665.049622	1146.862427	7661.678711	2296.000488	17.638840
665.380005	1083.147949	7659.402832	2327.857666	18.927334
665.710388	1053.566162	7545.626953	2161.744873	17.069754
666.040771	1115.005249	7679.882813	2318.755615	18.336220
666.371033	1149.138062	7538.800293	2311.929199	18.198008
666.701294	1171.893188	7520.596191	2195.877686	16.129034
667.031555	1130.933838	7627.545898	2307.378174	18.108582
667.361633	1128.658325	7345.381348	2359.715088	19.802341
667.691772	1149.138062	7516.045410	2407.500977	19.764116
668.021790	1064.943726	7616.167969	2396.123291	20.319555
668.351807	1133.209351	7477.361328	2327.857666	18.830702
668.681763	1130.933838	7531.973633	2332.408936	18.769999
669.011719	1126.382813	7493.290039	2453.011475	20.836311
669.341614	1112.729614	7720.842285	2355.164063	18.801653
669.671387	1130.933838	7634.372070	2266.418701	17.459763
670.001221	1142.311401	7593.413086	2366.541748	18.977074
670.330933	1101.352051	7486.463379	2377.919189	19.992872
670.660583	1117.280762	7634.372070	2346.062012	18.854750
670.990173	1146.862427	7468.259277	2343.786377	18.934484
671.319763	1146.862427	7399.993652	2307.378174	18.558954
671.649292	1146.862427	7297.595215	2364.266113	19.792824
671.978821	1071.770264	7577.484375	2245.938965	18.048269
672.308289	1110.454102	7377.238281	2341.510986	19.644156
672.637695	1149.138062	7231.604980	2289.173828	18.742983
672.966980	1092.250000	7202.023438	2291.449463	19.627560
673.296326	1194.648438	7067.767578	2350.613037	19.682295
673.625610	1087.698975	7242.982910	2330.133301	20.184841
673.954773	1110.454102	7076.869629	2314.204590	20.175438
674.283936	1187.821899	7154.237305	2286.898438	18.421053
674.613037	1126.382813	6958.542480	2296.000488	20.054625
674.942078	1121.831787	6901.654785	2291.449463	20.236219
675.271118	1108.178589	7074.594238	2268.694336	19.450804
675.600098	1096.801025	6992.675293	2216.357178	18.988808
675.928955	1135.484863	7095.073730	2234.561523	18.442156
676.257813	1155.964600	6935.787598	2250.489990	18.937004
676.586670	1096.801025	6988.124512	2350.613037	21.282351
676.915466	1110.454102	6922.134277	2275.520752	20.046986
677.244141	1203.750488	6897.103516	2250.489990	18.385290
677.572876	1103.627563	6862.970703	2209.530762	19.201899
677.901489	1110.454102	6892.552734	2286.898438	20.346321
678.230042	1087.698975	6906.205566	2289.173828	20.649195
678.558594	1064.943726	7022.257324	2359.715088	21.734148
678.887085	1092.250000	7133.757813	2341.510986	20.677967
679.215515	1092.250000	7067.767578	2275.520752	19.801979
679.543945	1137.760376	7231.604980	2371.092773	20.238987
679.872253	1140.035889	7270.289063	2453.011475	21.417967
680.200562	1064.943726	7279.391113	2421.154053	21.823507
680.528809	1174.168701	7404.544922	2482.593262	21.000732
680.856995	1140.035889	7670.780762	2427.980713	19.721254
681.185120	1162.791138	7668.504883	2546.307861	21.266178
681.513306	1112.729614	7827.791504	2416.603027	19.417147
681.841309	1064.943726	7784.556641	2446.184814	20.555367
682.169373	1180.995239	7531.973633	2468.940186	20.279472
682.497314	1194.648438	7661.678711	2398.398926	18.613651
682.825134	1128.658325	7593.413086	2455.286865	20.520941
683.153076	1101.352051	7388.616211	2375.643799	20.267826
683.480896	1087.698975	7322.625977	2348.337402	20.218977
683.808655	1169.617676	7247.533691	2402.949951	20.292027
684.136414	1062.668213	7038.186035	2464.388916	23.457729
684.464050	1121.831787	7022.257324	2375.643799	21.249517
684.791626	1037.637451	6765.123535	2309.653564	22.208977
685.119263	1069.494751	6853.868652	2400.674561	23.013376
685.446838	1167.342163	6614.938965	2334.684326	21.428572
685.774292	1101.352051	6610.387695	2241.387939	20.693928
686.101685	1149.138062	6576.254883	2298.276123	21.174007
686.429077	1137.760376	6662.725098	2300.551514	21.046127
686.756348	1176.444214	6539.846680	2225.459229	19.558760
687.083679	1069.494751	6373.733887	2289.173828	22.994421
687.410950	1101.352051	6412.417480	2284.622803	22.279348
687.738159	1212.852539	6655.898438	2325.582275	20.443144
688.065308	1094.525513	6592.183594	2380.194824	23.385763
688.392395	1185.546387	6628.592285	2316.480225	20.777592
688.719421	1160.515625	6696.857910	2325.582275	21.043978
689.046448	1178.719727	6635.418457	2291.449463	20.391994
689.373413	1158.240112	6558.050781	2380.194824	22.629585
689.700317	1103.627563	6535.295898	2305.102539	22.119814
690.027100	1142.311401	6348.703125	2296.000488	22.159092
690.353943	1117.280762	6498.887207	2298.276123	21.945034
690.680725	1103.627563	6462.479004	2157.193604	19.660295
691.007446	1108.178589	6205.345215	2314.204590	23.660715
691.334106	1069.494751	6173.487793	2227.734863	22.692823
691.660645	1108.178589	6096.120117	2161.744873	21.122267
691.987244	1151.413574	6139.354980	2230.010498	21.624090
692.313721	1062.668213	6034.681152	2175.397949	22.379866
692.640259	1096.801025	5907.251953	2109.407715	21.050140
692.966675	1103.627563	5875.394531	2145.816162	21.840727
693.293030	1117.280762	5934.558105	2214.081787	22.768068
693.619324	1126.382813	5850.363770	2182.224365	22.350674
693.945618	1133.209351	5820.782227	2216.357178	23.106794
694.271851	1099.076538	5750.241211	2050.244141	20.450096
694.598083	1121.831787	5631.914063	2125.336426	22.250252
694.924194	1128.658325	5759.343262	2234.561523	23.882065
695.250244	1169.617676	5804.853516	2095.754639	19.980364
695.576294	1101.352051	5802.578125	2145.816162	22.216845
695.902283	1121.831787	5641.016113	2173.122314	23.262836
696.228210	1101.352051	5666.046875	2141.265137	22.781656
696.554138	1096.801025	5825.333008	2209.530762	23.532244
696.879944	1108.178589	5745.689941	2239.112549	24.386658
697.205750	1071.770264	5882.221191	2193.602051	23.320719
697.531433	1044.463989	5923.180664	2202.704102	23.740671
697.857178	1049.015137	5886.772461	2250.489990	24.835369
698.182739	1130.933838	6057.436523	2191.326416	21.524246
698.508423	1092.250000	6464.754395	2348.337402	23.379923
698.833984	1126.382813	6742.368164	2427.980713	23.176661
699.159485	1103.627563	6969.920410	2457.562500	23.079906
699.484924	1160.515625	7124.655762	2534.930176	23.044640
699.810303	1078.596802	7279.391113	2475.766602	22.532110
700.135681	1110.454102	7058.665527	2482.593262	23.068096
700.460999	1183.270874	7129.206543	2453.011475	21.354765
700.786255	1165.066650	7008.604004	2418.878662	21.456388
701.111450	1192.372925	6826.562500	2530.379150	23.747980
701.436646	1085.423462	6796.980469	2305.102539	21.354580
701.761719	1137.760376	6416.968750	2284.622803	21.724136
702.086792	1149.138062	6123.426270	2375.643799	24.656910
702.411865	1101.352051	6039.232422	2218.632813	22.626728
702.736816	1140.035889	5848.088379	2264.143311	23.876270
703.061646	1105.903076	5752.516602	2179.948975	23.114595
703.386536	1105.903076	5518.138184	2148.091553	23.620419
703.711365	1137.760376	5540.893066	2093.479248	21.705429
704.036194	1074.045776	5404.361816	2107.132324	23.857071
704.360901	1165.066650	5286.034668	2072.999512	22.032030
704.685547	1108.178589	5142.677246	2095.754639	24.478285
705.010132	1146.862427	5124.472656	2086.652588	23.627005
705.334717	1042.188477	5097.166504	2016.111450	24.017960
705.659302	1092.250000	5060.758301	2032.040039	23.681190
705.983765	1101.352051	5081.237793	2070.723877	24.356775
706.308228	1108.178589	5017.523438	1984.254150	22.409781
706.632568	1165.066650	5063.033691	1984.254150	21.015762
706.956909	1046.739624	5056.207031	2063.897461	25.368902
707.281189	1099.076538	5049.380859	2004.733887	22.926268
707.605408	1128.658325	4983.390625	1984.254150	22.195986
707.929626	1151.413574	4937.880371	1972.876587	21.694710
708.253784	1149.138062	5138.125977	2068.448486	23.046207
708.577820	1137.760376	4960.635254	2070.723877	24.404760
708.901855	1094.525513	4969.737305	1968.325439	22.548443
709.225830	1076.321289	5022.074219	2027.489014	24.106115
709.549805	1158.240112	5058.482910	2025.213501	22.228704
709.873718	1174.168701	5035.727539	1997.907227	21.331762
710.197510	1117.280762	5088.064453	2100.305664	24.756445
710.521362	1110.454102	5088.064453	2143.540527	25.972540
710.845093	1158.240112	5279.208496	2041.142212	21.424627
711.168701	1174.168701	5304.238770	2091.203613	22.203857
711.492432	1153.689087	5392.984375	2143.540527	23.349434
711.816040	1167.342163	5443.045898	2150.367188	22.990953
712.139587	1146.862427	5370.229004	2052.519775	21.443966
712.463074	1158.240112	5322.443359	2070.723877	21.912565
712.786499	1146.862427	5440.770020	2086.652588	21.886595
713.109924	1194.648438	5365.678223	2107.132324	21.876705
713.433350	1103.627563	5299.687988	2082.101563	23.318872
713.756592	1085.423462	5197.289551	2093.479248	24.515774
714.079834	1085.423462	5179.085449	2009.284912	22.568092
714.403015	1151.413574	5078.962402	1975.152100	20.973349
714.726196	1126.382813	5099.441895	2068.448486	23.711344
715.049255	1051.290649	5147.228027	1995.631714	23.055553
715.372375	1176.444214	5038.002930	1997.907227	21.272835
715.695435	1155.964600	5106.268555	1931.917114	19.642857
716.018311	1126.382813	5001.594727	2066.172852	24.251320
716.341248	1140.035889	5103.993164	1972.876587	21.010334
716.664063	1096.801025	5154.054688	1970.601074	21.536737
716.987000	1178.719727	5042.554199	2025.213501	21.908127
717.309692	1165.066650	4865.063477	2022.937988	23.185732
717.632385	1153.689087	4972.013184	2022.937988	22.765194
717.955078	1064.943726	4956.084473	1979.703125	23.508772
718.277649	1135.484863	4776.318359	1988.805176	23.437498
718.600220	1130.933838	4751.287598	1954.672363	22.752985
718.922791	1194.648438	4803.624512	1920.539551	20.113491
719.245300	1183.270874	4610.205078	1863.651489	19.853916
719.567688	1119.556274	4553.316895	1909.161987	22.995361
719.890015	1105.903076	4532.837402	1893.233276	22.974768
720.212341	1119.556274	4505.531250	1875.029175	22.311827
720.534607	1185.546387	4341.693848	1690.711914	16.005764
720.856873	1115.005249	4246.121582	1777.181763	21.148258
721.179016	1101.352051	4257.499512	1829.518677	23.071375
721.501160	1085.423462	4223.366699	1824.967651	23.567799
721.823242	1135.484863	4277.979004	1811.314575	21.506157
722.145264	1069.494751	4189.233887	1754.426514	21.954777
722.467224	1174.168701	4227.917480	1754.426514	19.001492
722.789185	1115.005249	4205.162598	1715.742676	19.440351
723.111023	1117.280762	4105.039551	1720.293701	20.182785
723.432861	1099.076538	4091.386475	1768.079712	22.357414
723.754578	1099.076538	4080.008789	1765.804199	22.366415
724.076294	1140.035889	4041.324951	1722.569214	20.078430
724.397949	1089.974487	3948.028564	1752.151001	23.168787
724.719666	1099.076538	4132.345703	1770.355225	22.130535
725.041260	1135.484863	4093.661865	1718.018188	19.692308
725.362732	1142.311401	4105.039551	1763.528564	20.967741
725.684265	1103.627563	4102.764160	1770.355225	22.230652
726.005676	1149.138062	4086.835449	1843.171875	23.625097
726.327087	1074.045776	4234.744141	1795.385864	22.822176
726.648438	1049.015137	4045.875977	1711.191650	22.095671
726.969666	1112.729614	4029.947266	1761.253052	22.230888
727.290894	1171.893188	4234.744141	1743.048950	18.647846
727.612061	1115.005249	4105.039551	1731.671387	20.624050
727.933228	1176.444214	4227.917480	1868.202637	22.669655
728.254395	1101.352051	4218.815430	1772.630737	21.532848
728.575378	1190.097412	4221.091309	1836.345337	21.321321
728.896301	1105.903076	4373.550781	1856.824951	22.980503
729.217285	1101.352051	4446.367676	1815.865601	21.360544
729.538147	1158.240112	4444.092285	1774.906250	18.767313
729.858948	1110.454102	4250.672852	1811.314575	22.318842
730.179810	1165.066650	4287.081055	1770.355225	19.387756
730.500549	1067.219238	4175.580566	1881.855713	26.207909
730.821228	1074.045776	4314.387207	1715.742676	19.803373
731.141846	1135.484863	4414.510254	1834.069824	21.304653
731.462402	1049.015137	4362.173340	1809.039063	22.939560
731.782898	1210.577026	4425.888184	1813.590088	18.754423
732.103455	1140.035889	4510.082031	1836.345337	20.661718
732.423889	1137.760376	4412.234863	1763.528564	19.110491
732.744263	1094.525513	4453.194336	1781.732788	20.460703
733.064636	1151.413574	4434.990234	1758.977539	18.503115
733.384888	1069.494751	4364.448730	1856.824951	23.895027
733.705200	1094.525513	4357.622559	1831.794189	22.594137
734.025330	1217.403687	4432.714355	1811.314575	18.471338
734.345520	1101.352051	4382.652832	1720.293701	18.862692
734.665527	1058.117188	4341.693848	1900.059814	25.641022
734.985596	1137.760376	4362.173340	1774.906250	19.760057
735.305542	1044.463989	4214.264648	1743.048950	22.038765
735.625549	1051.290649	4080.008789	1802.212524	24.793388
735.945435	1108.178589	4341.693848	1765.804199	20.337793
736.265259	1119.556274	4143.723145	1777.181763	21.745674
736.585083	1151.413574	3982.161377	1770.355225	21.864952
736.904785	1058.117188	4025.396240	1752.151001	23.389570
737.224426	1151.413574	3963.957275	1772.630737	22.087378
737.544128	1110.454102	3959.406250	1772.630737	23.242813
737.863708	1087.698975	4016.294189	1799.937012	24.320126
738.183289	1103.627563	3861.558838	1727.120239	22.607260
738.502808	1137.760376	4068.631104	1704.365112	19.332302
738.822205	1151.413574	4011.743164	1733.946899	20.365952
739.141541	1133.209351	3888.864990	1733.946899	21.800167
739.460938	1178.719727	4107.314941	1788.559326	20.823622
739.780212	1094.525513	4136.896973	1765.804199	22.064323
740.099426	1219.679199	4130.070313	1793.110352	19.702890
740.418640	1119.556274	4004.916504	1824.967651	24.447947
740.737793	1083.147949	4045.875977	1818.141113	24.807987
741.056885	1089.974487	4020.845215	1756.702026	22.748447
741.375977	1101.352051	4109.590332	1795.385864	23.071106
741.694946	1151.413574	4155.101074	1806.763550	21.818180
742.013855	1160.515625	3988.988037	1756.702026	21.078035
742.332703	1117.280762	4016.294189	1724.844727	20.957611
742.651550	1171.893188	3827.426025	1815.865601	24.250216
742.970398	1112.729614	3745.507324	1711.191650	22.731201
743.289124	1119.556274	3850.181152	1720.293701	21.999998
743.607788	1180.995239	3684.068115	1667.956787	19.454550
743.926453	1083.147949	3829.701416	1786.283813	25.600662
744.245056	1194.648438	3788.742188	1729.395752	20.614033
744.563599	1162.791138	3686.343750	1645.201538	19.116320
744.882141	1108.178589	3702.272461	1711.191650	23.245615
745.200500	1044.463989	3624.904541	1733.946899	26.719582
745.518860	1176.444214	3636.282227	1667.956787	19.981503
745.837219	1133.209351	3615.802490	1677.058838	21.906507
746.155518	1069.494751	3704.547852	1681.609863	23.229706
746.473755	1155.964600	3583.945313	1713.467163	22.961573
746.791992	1155.964600	3538.434814	1658.854614	21.107925
747.110107	1110.454102	3579.394287	1724.844727	24.884792
747.428162	1140.035889	3581.669678	1706.640625	23.205967
747.746216	1126.382813	3554.363525	1654.303589	21.743202
748.064148	1080.872437	3579.394287	1704.365112	24.954460
748.382080	1124.107300	3731.854004	1672.507813	21.029671
748.700073	1174.168701	3611.251465	1708.916138	21.942112
749.017822	1128.658325	3643.108887	1695.262939	22.533932
749.335632	1155.964600	3577.118652	1745.324463	24.342106
749.653320	1110.454102	3622.629150	1642.926025	21.195654
749.971008	1203.750488	3684.068115	1690.711914	19.633026
750.288696	1144.586914	3640.833252	1713.467163	22.789427
750.606262	1112.729614	3529.332764	1665.681274	22.881361
750.923828	1121.831787	3656.761963	1713.467163	23.339317
751.241272	1064.943726	3611.251465	1667.956787	23.681862
751.558716	1149.138062	3558.914551	1740.773438	24.551464
751.876038	1137.760376	3492.924316	1631.548462	20.966187
752.193481	1135.484863	3599.874023	1724.844727	23.915049
752.510681	1096.801025	3508.853027	1740.773438	26.698114
752.827942	1126.382813	3422.383301	1656.579102	23.092169
753.145081	1083.147949	3602.149414	1690.711914	24.119238
753.462219	1089.974487	3574.843262	1745.324463	26.373627
753.779297	1162.791138	3472.444824	1665.681274	21.773399
754.096375	1167.342163	3474.720215	1695.262939	22.879684
754.413330	1196.923950	3458.791504	1683.885376	21.529175
754.730286	1119.556274	3522.506104	1708.916138	24.526516
755.047119	1124.107300	3588.496338	1658.854614	21.698980
755.363892	1101.352051	3465.618164	1663.405762	23.772861
755.680725	1196.923950	3474.720215	1638.375000	19.380619
755.997498	1144.586914	3385.974854	1708.916138	25.177668
756.314148	1180.995239	3397.352539	1704.365112	23.613966
756.630737	1226.505737	3345.015625	1642.926025	19.656284
756.947327	1169.617676	3376.872803	1652.028076	21.855671
757.263855	1119.556274	3440.587402	1620.170776	21.568624
757.580261	1108.178589	3442.863037	1768.079712	28.265108
757.896729	1206.026001	3315.433838	1608.793213	19.093853
758.213074	1128.658325	3411.005615	1740.773438	26.819544
758.529419	1124.107300	3472.444824	1633.823975	21.705427
758.845642	1144.586914	3449.689453	1658.854614	22.309971
759.161865	1076.321289	3442.863037	1654.303589	24.423077
759.478149	1140.035889	3470.169189	1686.160889	23.437500
759.794189	1142.311401	3549.812500	1724.844727	24.196598
760.110229	1130.933838	3602.149414	1658.854614	21.362797
760.426270	1074.045776	3638.557861	1722.569214	25.288374
760.742249	1196.923950	3479.271240	1663.405762	20.438688
761.058105	1137.760376	3659.037354	1713.467163	22.833939
761.374023	1083.147949	3517.955078	1736.222412	26.822432
761.689819	1087.698975	3513.404053	1702.089600	25.328331
762.005554	1101.352051	3599.874023	1699.814087	23.952642
762.321289	1121.831787	3486.097900	1772.630737	27.526468
762.636902	1046.739624	3593.047363	1654.303589	23.860588
762.952515	1108.178589	3622.629150	1736.222412	24.977377
763.268127	1112.729614	3661.312988	1754.426514	25.178572
763.583618	1101.352051	3740.956299	1809.039063	26.810345
763.899048	1105.903076	4080.008789	1797.661377	23.259371
764.214478	1140.035889	4687.572754	1884.131226	20.974985
764.529785	1074.045776	4912.849609	2086.652588	26.378187
764.845093	1117.280762	5012.972168	2018.386963	23.130842
765.160400	1190.097412	4862.788086	2161.744873	26.456011
765.475586	1055.841675	4726.256836	2118.509766	28.952259
765.790771	1069.494751	4705.776855	2111.683350	28.660828
766.105835	1128.658325	4453.194336	1902.335449	23.271732
766.420837	1103.627563	4357.622559	1843.171875	22.727272
766.735840	1133.209351	4205.162598	1881.855713	24.370371
767.050842	1108.178589	4016.294189	1865.927002	26.056335
767.365662	1151.413574	3950.304199	1749.875488	21.382111
767.680542	1078.596802	3688.619141	1761.253052	26.155188
767.995300	1108.178589	3688.619141	1686.160889	22.398592
768.309998	1110.454102	3636.282227	1743.048950	25.045048
768.624817	1103.627563	3649.935303	1790.834839	26.988384
768.939392	1192.372925	3390.525879	1733.946899	24.637686
769.254028	1080.872437	3627.180176	1733.946899	25.647902
769.568481	1135.484863	3492.924316	1674.783325	22.876450
769.882935	1092.250000	3517.955078	1718.018188	25.797373
770.197388	1099.076538	3397.352539	1581.486938	20.990099
770.511841	1115.005249	3351.842041	1640.650513	23.499491
770.826172	1096.801025	3306.331787	1588.313477	22.245106
771.140442	1023.984375	3299.505127	1597.415649	25.200003
771.454651	1117.280762	3190.280273	1599.691162	23.271130
771.768860	1119.556274	3215.310791	1611.068726	23.452770
772.082886	1101.352051	3267.647949	1718.018188	28.466385
772.397034	1092.250000	3283.576416	1590.588989	22.741430
772.711060	1060.392700	3197.106689	1626.997314	26.517570
773.025024	1058.117188	3258.545898	1636.099487	26.266804
773.338928	1128.658325	3244.892578	1620.170776	23.225803
773.652771	1140.035889	3149.320801	1674.783325	26.613819
773.966614	1142.311401	3008.238525	1570.109375	22.926832
774.280457	1092.250000	3021.891602	1590.588989	25.825468
774.594116	1121.831787	3019.616211	1565.558350	23.381294
774.907776	1130.933838	3003.687500	1558.731689	22.843252
775.221375	1112.729614	3026.442627	1592.864502	25.089180
775.534912	1078.596802	2978.656738	1636.099487	29.341322
775.848450	1169.617676	3083.330566	1570.109375	20.927471
776.161926	1112.729614	3042.371338	1581.486938	24.292454
776.475342	1115.005249	3035.544678	1529.150024	21.563982
776.788696	1101.352051	2910.391113	1654.303589	30.566036
777.101990	1049.015137	3008.238525	1529.150024	24.506388
777.415283	1121.831787	3065.126465	1681.609863	28.805620
777.728516	1167.342163	2937.697266	1563.282837	22.365042
778.041626	1174.168701	2951.350586	1601.966675	24.071705
778.354736	1158.240112	2851.227539	1563.282837	23.924734
778.667725	1053.566162	2967.279053	1586.037964	27.824017
778.980774	1153.689087	2953.625977	1617.895264	25.790136
779.293640	1151.413574	3021.891602	1563.282837	22.019464
779.606567	1128.658325	2949.074951	1535.976563	22.375000
779.919434	1101.352051	2873.982666	1522.323364	23.748394
780.232239	1101.352051	2889.911377	1483.639526	21.374044
780.544983	1142.311401	2921.768799	1517.772339	21.099743
780.857666	1096.801025	2880.809326	1583.762451	27.295918
781.170227	1133.209351	2819.370361	1492.741699	21.322540
781.482849	1078.596802	2801.166016	1415.373901	19.550859
781.795410	1117.280762	2705.594238	1449.506714	20.916901
782.107910	1108.178589	2921.768799	1504.119263	21.831871
782.420288	1167.342163	2905.840088	1472.261963	17.539267
782.732666	1151.413574	2719.247314	1547.354126	25.253988
783.044983	1210.577026	2712.420898	1476.812988	17.727272
783.357300	1105.903076	2753.380127	1485.915039	23.066298
783.669495	1135.484863	2682.839111	1531.425537	25.588238
783.981689	1121.831787	2712.420898	1567.833862	28.040056
784.293762	1233.332275	2737.451416	1497.292725	17.549171
784.605835	1099.076538	2726.073975	1481.364014	23.496502
784.917908	1162.791138	2696.492188	1415.373901	16.468840
785.229858	1167.342163	2587.267090	1490.466064	22.756407
785.541748	1185.546387	2712.420898	1504.119263	20.864378
785.853577	1140.035889	2635.052979	1492.741699	23.592093
786.165405	1146.862427	2616.848877	1497.292725	23.839016
786.477173	1074.045776	2548.583252	1467.710938	26.697535
786.788879	1085.423462	2696.492188	1479.088501	24.435024
787.100525	1115.005249	2676.012451	1419.924927	19.533522
787.412109	1135.484863	2641.879639	1429.027100	19.486408
787.723694	1126.382813	2653.257324	1522.323364	25.931440
788.035156	1074.045776	2660.083740	1422.200562	21.951227
788.346558	1103.627563	2732.900391	1401.720825	18.296093
788.658081	1128.658325	2646.430664	1488.190552	23.688152
788.969360	1096.801025	2776.135498	1515.496826	24.932245
789.280640	1128.658325	2851.227539	1561.007324	25.099079
789.591919	1135.484863	2828.472412	1510.945801	22.177420
789.903076	1096.801025	2867.156250	1472.261963	21.208225
790.214172	1133.209351	2958.177002	1545.078613	22.568579
790.525269	1049.015137	2807.992676	1508.670288	26.131950
790.836365	1108.178589	2666.910400	1431.302612	20.729931
791.147339	1096.801025	2764.757813	1504.119263	24.420191
791.458191	1137.760376	2598.644775	1531.425537	26.947044
791.769104	1124.107300	2569.062988	1526.874512	27.874018
792.079895	1083.147949	2553.134277	1367.588013	19.349844
792.390686	1210.577026	2553.134277	1472.261963	19.491529
792.701416	1199.199463	2580.440674	1367.588013	12.191104
793.012085	1169.617676	2537.205811	1481.364014	22.795338
793.322693	1142.311401	2430.256104	1490.466064	27.031801
793.633240	1130.933838	2498.521729	1451.782227	23.460897
793.943787	1194.648438	2471.215576	1472.261963	21.746880
794.254272	1153.689087	2507.624023	1440.404663	21.176466
794.564636	1137.760376	2503.072998	1306.148926	12.333333
794.875000	1074.045776	2525.828125	1488.190552	28.526644
795.185303	1153.689087	2425.705078	1442.680176	22.719139
795.495544	1089.974487	2400.674561	1488.190552	30.381937
795.805786	1103.627563	2473.491211	1397.169800	21.428574
796.115906	1149.138062	2516.726074	1520.047852	27.121456
796.426025	1105.903076	2446.184814	1454.057739	25.976231
796.736023	1071.770264	2635.052979	1454.057739	24.454149
797.045959	1078.596802	2682.839111	1601.966675	32.624115
797.355896	1071.770264	2528.103516	1454.057739	26.250000
797.665833	1121.831787	2616.848877	1463.159912	22.831051
797.975708	1169.617676	2625.950928	1438.129150	18.437502
798.285461	1110.454102	2482.593262	1542.803101	31.509121
798.595154	1092.250000	2425.705078	1463.159912	27.815704
798.904846	1094.525513	2471.215576	1454.057739	26.115698
799.214478	1128.658325	2425.705078	1401.720825	21.052633
799.524109	1210.577026	2450.735840	1442.680176	18.715599
799.833557	1128.658325	2446.184814	1444.955688	24.006907
800.143005	1185.546387	2441.633789	1415.373901	18.297096
800.452393	1108.178589	2418.878662	1415.373901	23.437498
800.761780	1135.484863	2407.500977	1415.373901	22.003576
801.071106	1174.168701	2471.215576	1433.578125	20.000004
801.380371	1076.321289	2393.847900	1378.965576	22.970640
801.689575	1137.760376	2346.062012	1451.782227	25.988697
801.998718	1117.280762	2493.970703	1383.516602	19.338839
802.307800	1169.617676	2311.929199	1451.782227	24.701191
802.616882	1108.178589	2380.194824	1406.271851	23.434706
802.925903	1128.658325	2389.296875	1385.792114	20.397106
803.234863	1174.168701	2346.062012	1372.139038	16.893206
803.543701	1099.076538	2377.919189	1431.302612	25.978651
803.852539	1108.178589	2316.480225	1538.252075	35.593224
804.161316	1062.668213	2275.520752	1438.129150	30.956850
804.470032	1117.280762	2264.143311	1360.761475	21.230156
804.778809	1119.556274	2257.316650	1444.955688	28.599995
805.087341	1133.209351	2361.990479	1458.608887	26.481489
805.395935	1192.372925	2361.990479	1497.292725	26.070044
805.704468	1060.392700	2412.052002	1451.782227	28.956226
806.012939	1101.352051	2261.867676	1454.057739	30.392153
806.321350	1183.270874	2316.480225	1429.027100	21.686745
806.629761	1117.280762	2359.715088	1303.873413	15.018311
806.938049	1099.076538	2380.194824	1401.720825	23.623446
807.246277	1101.352051	2402.949951	1408.547363	23.601398
807.554504	1069.494751	2270.969727	1481.364014	34.280304
807.862671	1135.484863	2325.582275	1397.169800	21.988531
808.170715	1165.066650	2421.154053	1388.067749	17.753630
808.478821	1169.617676	2302.827148	1394.894287	19.879520
808.786804	1137.760376	2398.398926	1360.761475	17.689535
809.094727	1140.035889	2402.949951	1385.792114	19.459457
809.402649	1146.862427	2346.062012	1435.853638	24.098675
809.710510	1146.862427	2316.480225	1335.730713	16.147863
810.018311	1176.444214	2148.091553	1408.547363	23.887592
810.326050	1167.342163	2200.428711	1444.955688	26.872242
810.633667	1153.689087	2209.530762	1413.098389	24.568958
810.941345	1142.311401	2236.836914	1451.782227	28.274427
811.248901	1119.556274	2161.744873	1376.690063	24.672482
811.556396	1242.434326	2261.867676	1367.588013	12.276790
811.863892	1153.689087	2189.051025	1401.720825	23.956041
812.171326	1094.525513	2123.060791	1388.067749	28.539831
812.478699	1058.117188	2204.979736	1358.485962	26.190477
812.786011	1099.076538	2207.255127	1303.873413	18.480494
813.093262	1194.648438	2150.367188	1353.934937	16.666672
813.400391	1080.872437	2111.683350	1401.720825	31.125824
813.707642	1135.484863	2209.530762	1431.302612	27.542376
814.014709	1133.209351	2118.509766	1324.353149	19.399546
814.321716	1126.382813	2179.948975	1385.792114	24.622023
814.628723	1119.556274	2127.612061	1319.802124	19.864561
814.935669	1071.770264	2152.642578	1297.046875	20.842112
815.242554	1133.209351	2111.683350	1322.077637	19.302330
815.549438	1089.974487	2152.642578	1344.832764	23.982866
815.856201	1174.168701	2082.101563	1435.853638	28.822058
816.162964	1055.841675	2093.479248	1338.006226	27.192978
816.469604	1167.342163	2136.714111	1363.036987	20.187796
816.776184	1158.240112	2113.958740	1451.782227	30.714281
817.082825	1119.556274	2166.295898	1397.169800	26.521736
817.389343	1192.372925	2166.295898	1367.588013	17.990652
817.695801	1074.045776	2072.999512	1378.965576	30.523916
818.002197	1080.872437	2225.459229	1365.312500	24.850895
818.308533	1124.107300	2170.846924	1351.659302	21.739122
818.614868	1135.484863	2138.989502	1360.761475	22.448986
818.921143	1210.577026	2207.255127	1376.690063	16.666668
819.227356	1128.658325	2195.877686	1315.250977	17.484001
819.533447	1080.872437	2218.632813	1381.241089	26.399992
819.839539	1110.454102	2314.204590	1360.761475	20.793959
820.145569	1099.076538	2407.500977	1433.578125	25.565220
820.451538	1128.658325	2387.021240	1458.608887	26.220621
820.757568	1069.494751	2532.654541	1529.150024	31.415247
821.063416	1121.831787	2678.288086	1563.282837	28.362574
821.369263	1130.933838	2819.370361	1561.007324	25.471701
821.675049	1140.035889	2764.757813	1576.935913	26.890757
821.980713	1103.627563	3033.269287	1667.956787	29.245285
822.286438	1130.933838	3308.607178	1768.079712	29.258101
822.592102	983.024963	4059.529053	1920.539551	30.473373
822.897583	1128.658325	5579.577148	2389.296875	28.323107
823.203125	1142.311401	8073.547852	3083.330566	28.003939
823.508545	1085.423462	9791.566406	3579.394287	28.646105
823.813965	1165.066650	10553.865234	3713.649902	27.144934
824.119263	1171.893188	9673.239258	3463.342773	26.953964
824.424622	1096.801025	8196.425781	3137.943115	28.749998
824.729858	1155.964600	6963.093750	2780.686523	27.978058
825.035095	1121.831787	6105.222168	2468.940186	27.031965
825.340149	1069.494751	5529.515625	2366.541748	29.081635
825.645264	1151.413574	4956.084473	2241.387939	28.648321
825.950256	1105.903076	4667.093262	2116.234375	28.370607
826.255310	1171.893188	4225.642090	1977.427612	26.378540
826.560242	1171.893188	4059.529053	1934.192627	26.398739
826.865112	1062.668213	3932.099854	1877.304688	28.390169
827.169922	1103.627563	3765.986816	1765.804199	24.871798
827.474670	1092.250000	3836.528076	1847.722900	27.529022
827.779419	1233.332275	4273.428223	1938.743774	23.203594
828.084045	1060.392700	4735.358887	2113.958740	28.668726
828.388672	1149.138062	5229.146973	2357.439453	29.615166
828.693176	1169.617676	5258.728516	2296.000488	27.545910
828.997681	1112.729614	4815.001953	2170.846924	28.580212
829.302124	1208.301514	4077.733398	1904.610962	24.266457
829.606567	1096.801025	3750.058350	1875.029175	29.331047
829.910828	1094.525513	3502.026611	1784.008301	28.638941
830.215149	1096.801025	3183.453613	1636.099487	25.845148
830.519348	1162.791138	3033.269287	1572.384888	21.897810
830.823547	1149.138062	2858.054199	1626.997314	27.962709
831.127686	1144.586914	2691.941162	1608.793213	30.000002
831.431763	1067.219238	2603.195801	1485.915039	27.259256
831.735779	1060.392700	2493.970703	1517.772339	31.904760
832.039734	1115.005249	2396.123291	1492.741699	29.484905
832.343628	1119.556274	2393.847900	1533.701050	32.500000
832.647461	1112.729614	2357.439453	1444.955688	26.691046
832.951233	1037.637451	2389.296875	1465.435425	31.649836
833.255127	1151.413574	2387.021240	1401.720825	20.257826
833.558777	1133.209351	2348.337402	1408.547363	22.659176
833.862366	1124.107300	2391.572266	1508.670288	30.341114
834.165955	1119.556274	2619.124512	1510.945801	26.100147
834.469482	1146.862427	3015.064941	1688.436401	28.989040
834.773010	1187.821899	3431.485352	1754.426514	25.253546
835.076416	1176.444214	3659.037354	1736.222412	22.548124
835.379822	1210.577026	3643.108887	1934.192627	29.747427
835.683105	1146.862427	3408.730225	1754.426514	26.861168
835.986389	1174.168701	3203.933350	1615.619751	21.748878
836.289612	1185.546387	2914.942139	1535.976563	20.263157
836.592773	1155.964600	2746.553711	1510.945801	22.317593
836.895874	1103.627563	2598.644775	1485.915039	25.570774
837.198914	1171.893188	2541.756836	1479.088501	22.425247
837.501892	1176.444214	2380.194824	1526.874512	29.111536
837.804871	1115.005249	2355.164063	1419.924927	24.587147
838.107666	1140.035889	2243.663574	1451.782227	28.247419
838.410583	1112.729614	2118.509766	1463.159912	34.841640
838.713379	1055.841675	2138.989502	1465.435425	37.815128
839.016052	1124.107300	2111.683350	1297.046875	17.511520
839.318787	1083.147949	1913.713013	1385.792114	36.438347
839.621338	1117.280762	1975.152100	1349.383789	27.055693
839.923889	1110.454102	1847.722900	1324.353149	29.012356
840.226440	1146.862427	1977.427612	1312.975464	20.000000
840.528931	1135.484863	1970.601074	1328.904175	23.160767
840.831299	1142.311401	2136.714111	1322.077637	18.077810
841.133606	1187.821899	2168.571289	1408.547363	22.505796
841.435913	1176.444214	2161.744873	1492.741699	32.101620
841.738220	1119.556274	2104.856689	1390.343262	27.482683
842.040405	1185.546387	2125.336426	1347.108276	17.191275
842.342529	1167.342163	2054.795166	1333.455200	18.717953
842.644592	1053.566162	1879.580200	1360.761475	37.190083
842.946594	1153.689087	1852.273926	1308.424438	22.149830
843.248596	1130.933838	1895.508789	1278.842651	19.345234
843.550598	1137.760376	1872.753662	1240.158813	13.931888
843.852478	1133.209351	1809.039063	1328.904175	28.956232
844.154236	1130.933838	1849.998413	1267.465088	18.987343
844.455994	1087.698975	1718.018188	1317.526489	36.462082
844.757690	1046.739624	1731.671387	1294.771362	36.212620
845.059326	1103.627563	1738.497925	1260.638550	24.731188
845.360962	1074.045776	1706.640625	1258.363037	29.136700
845.662476	1128.658325	1697.538574	1219.679199	16.000006
845.963989	1062.668213	1692.987427	1276.567139	33.935017
846.265381	1115.005249	1702.089600	1231.056763	19.767435
846.566772	1119.556274	1586.037964	1219.679199	21.463421
846.868042	1060.392700	1642.926025	1169.617676	18.749996
847.169373	1201.474976	1722.569214	1212.852539	2.183398
847.470581	1187.821899	1663.405762	1274.291626	18.181805
847.771729	1094.525513	1656.579102	1269.740601	31.174089
848.072815	1140.035889	1595.140137	1185.546387	10.000016
848.373901	1115.005249	1570.109375	1224.230225	23.999996
848.674866	1126.382813	1545.078613	1215.128052	21.195637
848.975891	1124.107300	1601.966675	1237.883301	23.809515
849.276794	1149.138062	1624.721802	1208.301514	12.440176
849.577637	1053.566162	1595.140137	1203.750488	27.731083
849.878357	1099.076538	1570.109375	1192.372925	19.806768
850.179077	1140.035889	1565.558350	1160.515625	4.812845
850.479736	1110.454102	1631.548462	1185.546387	14.410497
850.780396	1130.933838	1595.140137	1242.434326	24.019598
851.080994	1144.586914	1581.486938	1203.750488	13.541674
851.381470	1094.525513	1604.242188	1190.097412	18.750004
851.681946	1074.045776	1510.945801	1146.862427	16.666662
851.982361	1140.035889	1574.660400	1126.382813	-3.141350
852.282715	1162.791138	1581.486938	1242.434326	19.021730
852.583008	1121.831787	1647.477051	1196.923950	14.285711
852.883240	1190.097412	1631.548462	1199.199463	2.061848
853.183411	1153.689087	1574.660400	1212.852539	14.054034
853.483521	1153.689087	1545.078613	1190.097412	9.302325
853.783630	1092.250000	1617.895264	1149.138062	10.822519
854.083679	1210.577026	1567.833862	1235.607788	7.006377
854.383667	1099.076538	1615.619751	1292.495850	37.444942
854.683533	1174.168701	1535.976563	1281.118164	29.559740
854.983337	1085.423462	1586.037964	1176.444214	18.181805
855.283203	1137.760376	1565.558350	1151.413574	3.191506
855.582886	1158.240112	1522.323364	1201.474976	11.874993
855.882629	1096.801025	1549.629639	1212.852539	25.628132
856.182312	1058.117188	1513.221313	1253.812012	43.000011
856.481873	1064.943726	1565.558350	1242.434326	35.454536
856.781372	1121.831787	1465.435425	1169.617676	13.907270
857.080872	1149.138062	1447.231201	1201.474976	17.557236
857.380310	1112.729614	1556.456177	1240.158813	28.717957
857.679688	1080.872437	1545.078613	1310.699951	49.509792
857.979004	1085.423462	1581.486938	1196.923950	22.477060
858.278259	1076.321289	1581.486938	1171.893188	18.918922
858.577454	1130.933838	1533.701050	1158.240112	6.779667
858.876648	1144.586914	1522.323364	1162.791138	4.819292
859.175720	1146.862427	1588.313477	1117.280762	-6.701007
859.474792	1167.342163	1510.945801	1187.821899	5.960279
859.773743	1135.484863	1506.394775	1137.760376	0.613495
860.072693	1187.821899	1526.874512	1135.484863	-15.436258
860.371521	1167.342163	1572.384888	1212.852539	11.235945
860.670349	1144.586914	1506.394775	1174.168701	8.176104
860.969116	1219.679199	1517.772339	1233.332275	4.580138
861.267883	1126.382813	1495.017212	1240.158813	30.864185
861.566589	1160.515625	1501.843750	1180.995239	5.999979
861.865112	1146.862427	1488.190552	1160.515625	4.000021
862.163635	1103.627563	1617.895264	1187.821899	16.371695
862.462158	1074.045776	1417.649414	1180.995239	31.125824
862.760620	1128.658325	1513.221313	1199.199463	18.343195
863.059021	1071.770264	1565.558350	1185.546387	23.041489
863.357361	1101.352051	1495.017212	1142.311401	10.404616
863.655640	1142.311401	1538.252075	1242.434326	25.287355
863.953857	1174.168701	1549.629639	1203.750488	7.878792
864.251953	1126.382813	1565.558350	1165.066650	8.808286
864.550110	1194.648438	1429.027100	1174.168701	-8.737885
864.848206	1158.240112	1510.945801	1167.342163	2.580636
865.146179	1101.352051	1515.496826	1237.883301	32.967033
865.444092	1126.382813	1547.354126	1176.444214	11.891879
865.741943	1101.352051	1524.598877	1176.444214	17.741932
866.039795	1124.107300	1567.833862	1297.046875	38.974358
866.337646	1153.689087	1463.159912	1201.474976	15.441161
866.635376	1133.209351	1558.731689	1162.791138	6.951877
866.933044	1064.943726	1490.466064	1196.923950	31.016050
867.230652	1110.454102	1574.660400	1260.638550	32.352955
867.528198	1121.831787	1561.007324	1199.199463	17.616571
867.825745	1094.525513	1551.905151	1165.066650	15.422886
868.123230	1146.862427	1465.435425	1244.709839	30.714283
868.420593	1096.801025	1474.537476	1178.719727	21.686735
868.717896	1174.168701	1526.874512	1192.372925	5.161305
869.015198	1085.423462	1465.435425	1249.260864	43.113750
869.312439	1119.556274	1474.537476	1190.097412	19.871796
869.609619	1149.138062	1526.874512	1217.403687	18.072290
869.906738	1155.964600	1442.680176	1183.270874	9.523820
870.203796	1039.912964	1433.578125	1174.168701	34.104042
870.500854	1128.658325	1508.670288	1180.995239	13.772439
870.797791	1110.454102	1542.803101	1142.311401	7.368422
871.094666	1135.484863	1526.874512	1228.781250	23.837214
871.391602	1094.525513	1447.231201	1135.484863	11.612898
871.688293	1124.107300	1485.915039	1099.076538	-6.918250
871.985107	1153.689087	1538.252075	1203.750488	13.017737
872.281738	1146.862427	1576.935913	1258.363037	25.925943
872.578369	1105.903076	1490.466064	1233.332275	33.136105
872.874939	1128.658325	1506.394775	1203.750488	19.879513
873.171509	1153.689087	1485.915039	1140.035889	-4.109612
873.467957	1112.729614	1479.088501	1146.862427	9.316770
873.764343	1044.463989	1561.007324	1180.995239	26.431713
874.060669	1149.138062	1524.598877	1237.883301	23.636353
874.356995	1067.219238	1456.333252	1135.484863	17.543861
874.653198	1085.423462	1444.955688	1176.444214	25.316437
874.949463	1060.392700	1476.812988	1258.363037	47.540993
875.245544	1137.760376	1488.190552	1210.577026	20.779219
875.541626	1167.342163	1508.670288	1144.586914	-6.666678
875.837646	1192.372925	1549.629639	1187.821899	-1.273881
876.133606	1201.474976	1508.670288	1210.577026	2.962952
876.429565	1199.199463	1510.945801	1160.515625	-12.408754
876.725403	1110.454102	1533.701050	1174.168701	15.053764
877.021179	1153.689087	1579.211426	1178.719727	5.882333
877.316956	1140.035889	1490.466064	1146.862427	1.948045
877.612610	1110.454102	1563.282837	1221.954712	24.623131
877.908203	1105.903076	1533.701050	1217.403687	26.063847
878.203857	1067.219238	1558.731689	1169.617676	20.833336
878.499390	1105.903076	1542.803101	1162.791138	13.020842
878.794800	1128.658325	1476.812988	1274.291626	41.830059
879.090271	1089.974487	1613.344238	1180.995239	17.391291
879.385559	1110.454102	1504.119263	1258.363037	37.572269
879.680847	1051.290649	1692.987427	1171.893188	18.794319
879.976196	1083.147949	1672.507813	1287.944824	34.749035
880.271301	1137.760376	1758.977539	1281.118164	23.076920
880.566467	1137.760376	1736.222412	1303.873413	27.756655
880.861572	1146.862427	1770.355225	1317.526489	27.372259
881.156555	1103.627563	2018.386963	1367.588013	28.855724
881.451477	1151.413574	2145.816162	1388.067749	23.798628
881.746460	1087.698975	2666.910400	1529.150024	27.953892
882.041321	1176.444214	3390.525879	1661.130127	21.891060
882.336121	1185.546387	4084.559814	1904.610962	24.803768
882.630798	1128.658325	4689.848145	2059.346436	26.134190
882.925537	1069.494751	4637.511230	2084.376953	28.443876
883.220215	1146.862427	4387.204102	2057.070801	28.089888
883.514771	1085.423462	4196.060547	1986.529663	28.968540
883.809326	1080.872437	3827.426025	1863.651489	28.500410
884.103760	1142.311401	3590.771729	1788.559326	26.394053
884.398132	1108.178589	3408.730225	1670.232300	24.431257
884.692505	1140.035889	3144.769775	1670.232300	26.447222
884.986816	1130.933838	2949.074951	1558.731689	23.529409
885.281067	1078.596802	2844.401123	1622.446289	30.798967
885.575256	1083.147949	2660.083740	1554.180664	29.870127
885.869385	1149.138062	2393.847900	1490.466064	27.422295
886.163452	1140.035889	2291.449463	1492.741699	30.632418
886.457458	1094.525513	2095.754639	1315.250977	22.045450
886.751465	1169.617676	2102.581299	1376.690063	22.195120
887.045410	1203.750488	2007.009399	1353.934937	18.696892
887.339233	1153.689087	1897.784302	1340.281738	25.076448
887.632996	1190.097412	1774.906250	1249.260864	10.116716
887.926758	1119.556274	1722.569214	1274.291626	25.660370
888.220398	1142.311401	1774.906250	1217.403687	11.870518
888.514099	1144.586914	1663.405762	1160.515625	3.070187
888.807678	1233.332275	1711.191650	1149.138062	-17.619036
889.101196	1146.862427	1611.068726	1242.434326	20.588238
889.394653	1117.280762	1611.068726	1308.424438	38.709667
889.688049	1096.801025	1540.527588	1196.923950	22.564104
889.981384	1142.311401	1583.762451	1228.781250	19.587641
890.274719	1178.719727	1481.364014	1212.852539	11.278194
890.567932	1183.270874	1488.190552	1199.199463	5.223864
>>>>>End Processed Spectral Data<<<<<
