Jaz Data File
++++++++++++++++++++++++++++++++++++
Date: Wed Feb 07 06:49:16 2024
User: jaz
Dark Spectrum Present: Yes
Reference Spectrum Present: Yes
Processed Spectrum Present: Yes
Spectrometers: JAZA3692
Integration Time (usec): 40000 (JAZA3692)
Spectra Averaged: 1 (JAZA3692)
Boxcar Smoothing: 0 (JAZA3692)
Correct for Electrical Dark: No (JAZA3692)
Strobe/Lamp Enabled: Yes (JAZA3692)
Correct for Detector Non-linearity: No (JAZA3692)
Correct for Stray Light: No (JAZA3692)
Number of Pixels in Processed Spectrum: 2048
>>>>>Begin Processed Spectral Data<<<<<
W	D	R	S	P
190.244385	0.000000	0.000000	0.000000	0.000000
190.627136	0.000000	0.000000	0.000000	0.000000
191.009842	971.647400	973.922913	978.473938	300.000000
191.392532	1005.780212	971.647400	935.239075	206.666641
191.775177	1010.331238	1008.055725	942.065613	3000.010742
192.157791	998.953613	969.371887	1017.157776	-61.538540
192.540390	1026.259888	987.576050	996.678101	76.470665
192.922943	1017.157776	1030.810913	946.616638	-516.666138
193.305481	1058.117188	939.790100	1039.912964	15.384663
193.687958	1105.903076	1035.361938	964.820801	200.000000
194.070419	1085.423462	1010.331238	1005.780212	106.060585
194.452866	1103.627563	1171.893188	1074.045776	-43.333359
194.835251	1012.606750	998.953613	1017.157776	-33.333183
195.217621	1055.841675	1064.943726	1085.423462	325.001343
195.599960	1071.770264	1035.361938	1058.117188	37.499874
195.982254	1076.321289	1089.974487	989.851563	-633.329468
196.364517	1028.535400	1039.912964	983.024963	-400.001617
196.746750	1033.086426	1076.321289	976.198425	-131.578995
197.128952	1021.708862	1035.361938	1087.698975	483.335114
197.511139	1051.290649	1074.045776	1108.178589	250.000534
197.893280	983.024963	1087.698975	1087.698975	100.000000
198.275391	1042.188477	1035.361938	1053.566162	-166.668457
198.657471	1089.974487	1037.637451	1076.321289	26.087069
199.039520	1046.739624	1069.494751	1028.535400	-80.000534
199.421539	1017.157776	1064.943726	964.820801	-109.523773
199.803513	1083.147949	973.922913	1071.770264	10.416738
200.185471	1008.055725	1012.606750	1019.433350	250.001343
200.567383	1033.086426	1071.770264	1062.668213	76.470665
200.949265	1030.810913	1005.780212	1028.535400	9.090887
201.331131	1012.606750	1083.147949	992.127075	-29.032219
201.712967	1026.259888	1044.463989	1071.770264	250.000671
202.094742	1012.606750	1035.361938	971.647400	-180.000061
202.476517	1058.117188	1046.739624	980.749451	680.002686
202.858231	1039.912964	1005.780212	1030.810913	26.666618
203.239944	996.678101	1021.708862	980.749451	-63.636295
203.621582	998.953613	1021.708862	994.402588	-19.999893
204.003235	1076.321289	1033.086426	939.790100	315.789581
204.384827	1049.015137	1033.086426	978.473938	442.855652
204.766388	1096.801025	985.300537	957.994263	124.489822
205.147934	992.127075	1042.188477	1060.392700	136.363785
205.529449	1026.259888	1035.361938	926.136963	-1100.004028
205.910904	1028.535400	1001.229126	1037.637451	-33.333183
206.292343	1001.229126	1005.780212	1008.055725	149.999329
206.673767	1021.708862	1003.504700	989.851563	175.000076
207.055115	1044.463989	1094.525513	1026.259888	-36.363461
207.436462	1023.984375	1005.780212	1042.188477	-99.999664
207.817780	1028.535400	1051.290649	1042.188477	59.999680
208.199051	1037.637451	1055.841675	992.127075	-249.998993
208.580307	1053.566162	1026.259888	998.953613	200.000000
208.961517	983.024963	1012.606750	1030.810913	161.538406
209.342712	1026.259888	1058.117188	1101.352051	235.714142
209.723846	1001.229126	1030.810913	994.402588	-23.076828
210.104965	1078.596802	1055.841675	973.922913	460.001343
210.486069	998.953613	1094.525513	978.473938	-21.428553
210.867111	1008.055725	1069.494751	1037.637451	48.148106
211.248123	992.127075	1055.841675	1035.361938	67.857071
211.629120	1003.504700	1019.433350	946.616638	-357.143036
212.010071	1026.259888	1053.566162	1005.780212	-74.999886
212.390991	1001.229126	1099.076538	878.351013	-125.581360
212.771881	1012.606750	1026.259888	978.473938	-249.999771
213.152756	1012.606750	1044.463989	1080.872437	214.286255
213.533569	969.371887	1044.463989	1014.882263	60.606075
213.914368	1003.504700	1051.290649	957.994263	-95.238113
214.295135	1051.290649	1099.076538	1003.504700	-100.000130
214.675858	1033.086426	980.749451	989.851563	82.608643
215.056549	1019.433350	964.820801	951.167725	124.999886
215.437225	996.678101	1046.739624	1026.259888	59.090866
215.817841	937.514587	1019.433350	994.402588	69.444412
216.198441	921.585938	1074.045776	1030.810913	71.641800
216.579025	964.820801	1049.015137	992.127075	32.432438
216.959549	1019.433350	1042.188477	1026.259888	30.000000
217.340057	1033.086426	987.576050	1005.780212	59.999973
217.720535	996.678101	1021.708862	1026.259888	118.181732
218.100967	957.994263	1069.494751	973.922913	14.285722
218.481369	1035.361938	1069.494751	1003.504700	-93.333176
218.861740	1133.209351	1042.188477	1001.229126	144.999954
219.242065	1010.331238	1112.729614	1030.810913	20.000000
219.622391	1051.290649	1089.974487	1003.504700	-123.529495
220.002670	1060.392700	1115.005249	957.994263	-187.499832
220.382919	1001.229126	1153.689087	976.198425	-16.417885
220.763123	1096.801025	1039.912964	994.402588	179.999878
221.143295	1028.535400	1096.801025	960.269775	-100.000000
221.523453	1060.392700	1099.076538	935.239075	-323.529510
221.903549	1008.055725	1101.352051	971.647400	-39.024395
222.283630	1051.290649	1026.259888	992.127075	236.363464
222.663696	1010.331238	1046.739624	1030.810913	56.249886
223.043701	989.851563	1039.912964	1062.668213	145.454681
223.423676	967.096313	1044.463989	998.953613	41.176498
223.803635	1051.290649	1067.219238	1010.331238	-257.144012
224.183548	1010.331238	1135.484863	1051.290649	32.727306
224.563431	1049.015137	1062.668213	969.371887	-583.335571
224.943283	1071.770264	1035.361938	1028.535400	118.749939
225.323105	1010.331238	1078.596802	992.127075	-26.666685
225.702881	994.402588	973.922913	1026.259888	-155.555695
226.082642	1014.882263	1046.739624	987.576050	-85.713982
226.462357	1026.259888	1028.535400	1067.219238	1800.005371
226.842041	1026.259888	1083.147949	1028.535400	3.999983
227.221695	1035.361938	1089.974487	1019.433350	-29.166536
227.601318	1010.331238	1087.698975	1060.392700	64.705864
227.980911	969.371887	1105.903076	957.994263	-8.333352
228.360474	996.678101	1078.596802	1021.708862	30.555613
228.739990	1042.188477	1085.423462	987.576050	-126.315361
229.119476	998.953613	1183.270874	969.371887	-16.049353
229.498932	1044.463989	1178.719727	971.647400	-54.237228
229.878372	1060.392700	1096.801025	1044.463989	-43.750187
230.257736	969.371887	1294.771362	964.820801	-1.398615
230.637115	978.473938	1217.403687	1005.780212	11.428578
231.016449	930.687988	1267.465088	1028.535400	29.054058
231.395737	976.198425	1176.444214	1035.361938	29.545446
231.774994	1037.637451	1215.128052	953.443237	-47.435871
232.154221	987.576050	1190.097412	998.953613	5.617957
232.533417	1008.055725	1242.434326	992.127075	-6.796120
232.912582	1037.637451	1192.372925	1019.433350	-11.764660
233.291702	1033.086426	1180.995239	983.024963	-33.846165
233.670792	989.851563	1153.689087	1069.494751	48.611080
234.049866	1026.259888	1124.107300	1026.259888	0.000000
234.428894	1014.882263	1105.903076	1001.229126	-15.000017
234.807892	992.127075	1187.821899	989.851563	-1.162786
235.186874	1008.055725	1155.964600	1019.433350	7.692320
235.565781	1044.463989	1262.914063	1046.739624	1.041718
235.944687	985.300537	1240.158813	953.443237	-12.500006
236.323547	992.127075	1160.515625	1044.463989	31.081041
236.702377	1026.259888	1215.128052	1023.984375	-1.204815
237.081177	1062.668213	1224.230225	998.953613	-39.436623
237.459946	1028.535400	1187.821899	1030.810913	1.428566
237.838669	1003.504700	1269.740601	980.749451	-8.547025
238.217361	1035.361938	1176.444214	969.371887	-46.774162
238.596039	1017.157776	1224.230225	994.402588	-10.988998
238.974670	1053.566162	1176.444214	1083.147949	24.074102
239.353271	1028.535400	1190.097412	1053.566162	15.492975
239.731842	1128.658325	1265.189575	953.443237	-128.333328
240.110367	1058.117188	1285.669312	1035.361938	-10.000016
240.488876	1023.984375	1290.220337	942.065613	-30.769232
240.867340	1035.361938	1283.393677	1058.117188	9.174330
241.245789	955.718750	1335.730713	1028.535400	19.161673
241.624176	930.687988	1374.414551	1039.912964	24.615379
242.002548	1026.259888	1353.934937	1023.984375	-0.694442
242.380890	1026.259888	1415.373901	1012.606750	-3.508775
242.759186	948.892151	1501.843750	1035.361938	15.637858
243.137451	1049.015137	1501.843750	1101.352051	11.557775
243.515686	1044.463989	1581.486938	971.647400	-13.559307
243.893890	998.953613	1686.160889	1026.259888	3.973514
244.272049	1094.525513	1561.007324	1010.331238	-18.048780
244.650192	1014.882263	1474.537476	994.402588	-4.455443
245.028290	1112.729614	1483.639526	1037.637451	-20.245392
245.406357	951.167725	1501.843750	1067.219238	21.074371
245.784393	985.300537	1451.782227	1049.015137	13.658543
246.162384	1026.259888	1481.364014	1044.463989	3.999986
246.540359	1087.698975	1504.119263	1121.831787	8.196722
246.918289	1037.637451	1649.752563	1121.831787	13.754658
247.296204	1033.086426	1713.467163	1064.943726	4.682275
247.674057	992.127075	1954.672363	1094.525513	10.638298
248.051895	955.718750	2175.397949	1074.045776	9.701488
248.429703	1012.606750	2120.785400	1160.515625	13.347024
248.807465	985.300537	2104.856689	1169.617676	16.463411
249.185196	1067.219238	2034.315552	1094.525513	2.823532
249.562897	1033.086426	1827.243164	1099.076538	8.309457
249.940567	998.953613	1774.906250	1060.392700	7.917892
250.318192	1076.321289	1681.609863	1089.974487	2.255651
250.695801	1085.423462	1674.783325	1062.668213	-3.861011
251.073349	1014.882263	1558.731689	1030.810913	2.928871
251.450882	1044.463989	1611.068726	1055.841675	2.008046
251.828400	1053.566162	1492.741699	1058.117188	1.036266
252.205872	1051.290649	1540.527588	1074.045776	4.651146
252.583313	1067.219238	1638.375000	1108.178589	7.171310
252.960693	1014.882263	1729.395752	1092.250000	10.828031
253.338074	1005.780212	1733.946899	1137.760376	18.124994
253.715408	1023.984375	1820.416626	1187.821899	20.571432
254.092682	1074.045776	1679.334351	1117.280762	7.142871
254.469955	1051.290649	1592.864502	1126.382813	13.865544
254.847198	1001.229126	1601.966675	1062.668213	10.227276
255.224365	1035.361938	1517.772339	1030.810913	-0.943393
255.601563	1133.209351	1483.639526	1083.147949	-14.285699
255.978683	928.412476	1595.140137	1076.321289	22.184292
256.355743	1062.668213	1567.833862	1076.321289	2.702693
256.732819	1049.015137	1547.354126	1058.117188	1.826478
257.109894	996.678101	1510.945801	1071.770264	14.601766
257.486877	957.994263	1565.558350	1103.627563	23.970032
257.863831	976.198425	1636.099487	1126.382813	22.758621
258.240753	1060.392700	1704.365112	1058.117188	-0.353356
258.617645	989.851563	1638.375000	1096.801025	16.491226
258.994507	996.678101	1731.671387	1060.392700	8.668733
259.371307	1053.566162	1724.844727	1087.698975	5.084746
259.748108	1001.229126	1915.988525	1124.107300	13.432840
260.124878	1008.055725	2100.305664	1174.168701	15.208329
260.501617	1001.229126	2336.959961	1185.546387	13.798983
260.878296	1074.045776	2564.511963	1210.577026	9.160305
261.254944	1074.045776	2650.981689	1206.026001	8.369410
261.631561	976.198425	2519.001465	1183.270874	13.421834
262.008179	1023.984375	2323.306641	1135.484863	8.581434
262.384735	1028.535400	2095.754639	1110.454102	7.675902
262.761261	987.576050	1952.396851	1078.596802	9.433954
263.137695	1033.086426	1865.927002	1046.739624	1.639353
263.514191	1067.219238	1843.171875	1151.413574	10.850448
263.890594	1083.147949	1831.794189	1135.484863	6.990874
264.267029	1030.810913	1831.794189	1119.556274	11.079553
264.643341	973.922913	1925.090576	1058.117188	8.851675
265.019653	1023.984375	1845.447388	1039.912964	1.939051
265.395935	1044.463989	1692.987427	1149.138062	16.140368
265.772217	1085.423462	1777.181763	1096.801025	1.644731
266.148407	989.851563	1829.518677	1053.566162	7.588078
266.524597	1033.086426	1806.763550	1092.250000	7.647063
266.900726	1026.259888	1888.682251	1101.352051	8.707122
267.276855	1008.055725	1906.886475	1108.178589	11.139235
267.652924	1110.454102	2079.825928	1096.801025	-1.408446
268.028992	1019.433350	2020.662476	1142.311401	12.272720
268.404999	983.024963	2050.244141	1196.923950	20.042646
268.781006	1044.463989	2077.550537	1089.974487	4.405294
269.156921	1067.219238	2104.856689	1160.515625	8.991232
269.532837	996.678101	2034.315552	1144.586914	14.254383
269.908661	989.851563	2072.999512	1021.708862	2.941177
270.284546	1051.290649	1993.356201	1062.668213	1.207725
270.660339	1033.086426	2025.213501	1105.903076	7.339448
271.036133	1003.504700	2168.571289	1167.342163	14.062497
271.411835	1026.259888	2143.540527	1035.361938	0.814661
271.787537	967.096313	2305.102539	1169.617676	15.136055
272.163239	1014.882263	2402.949951	1135.484863	8.688525
272.538849	973.922913	2484.868652	1165.066650	12.650602
272.914459	1019.433350	2564.511963	1171.893188	9.867449
273.290070	1067.219238	2282.347412	1155.964600	7.303374
273.665588	973.922913	2191.326416	1151.413574	14.579443
274.041046	1019.433350	2280.071777	1153.689087	10.649821
274.416565	971.647400	2211.806152	1101.352051	10.458714
274.791962	996.678101	2302.827148	1119.556274	9.407669
275.167389	1064.943726	2157.193604	1133.209351	6.250000
275.542755	1014.882263	2198.153076	1203.750488	15.961539
275.918060	1017.157776	2175.397949	1130.933838	9.823183
276.293365	1035.361938	2161.744873	1115.005249	7.070714
276.668640	1103.627563	2202.704102	1108.178589	0.414077
277.043854	987.576050	2366.541748	1115.005249	9.240926
277.419037	1037.637451	2311.929199	1099.076538	4.821430
277.794189	1021.708862	2252.765625	1185.546387	13.308690
278.169312	1017.157776	2348.337402	1117.280762	7.521373
278.544373	1028.535400	2323.306641	1076.321289	3.690682
278.919464	1010.331238	2348.337402	1108.178589	7.312922
279.294464	960.269775	2311.929199	1130.933838	12.626262
279.669464	1026.259888	2259.592041	1128.658325	8.302584
280.044403	989.851563	2202.704102	1112.729614	10.131327
280.419312	1046.739624	2293.724854	1046.739624	0.000000
280.794189	1014.882263	2400.674561	1153.689087	10.016424
281.169037	1074.045776	2348.337402	1228.781250	12.142862
281.543854	1037.637451	2407.500977	1167.342163	9.468440
281.918671	1017.157776	2434.807373	1137.760376	8.507222
282.293365	992.127075	2557.685303	1212.852539	14.098835
282.668091	1021.708862	2632.777588	1169.617676	9.180789
283.042786	1028.535400	2767.033203	1206.026001	10.209423
283.417419	1021.708862	2676.012451	1160.515625	8.390646
283.792053	1142.311401	2707.869873	1194.648438	3.343027
284.166595	1023.984375	2632.777588	1115.005249	5.657711
284.541138	1060.392700	2580.440674	1196.923950	8.982036
284.915619	1069.494751	2484.868652	1217.403687	10.450167
285.290100	980.749451	2589.542725	1249.260864	16.690237
285.664520	1064.943726	2739.727051	1221.954712	9.375003
286.038940	1140.035889	2830.747803	1201.474976	3.633918
286.413300	942.065613	2958.177002	1278.842651	16.704288
286.787628	1035.361938	2871.707275	1260.638550	12.267660
287.161896	1046.739624	2905.840088	1303.873413	13.831086
287.536194	1037.637451	2974.105713	1265.189575	11.750883
287.910400	1005.780212	2885.360352	1317.526489	16.585953
288.284607	1005.780212	2716.971924	1312.975464	17.952124
288.658752	1003.504700	2516.726074	1269.740601	17.593981
289.032867	976.198425	2569.062988	1281.118164	19.142855
289.406921	985.300537	2641.879639	1256.087524	16.346155
289.781006	1039.912964	2705.594238	1240.158813	12.021859
290.154999	1126.382813	2710.145264	1303.873413	11.206896
290.529022	1008.055725	2719.247314	1385.792114	22.074465
290.902954	989.851563	2930.870850	1324.353149	17.233295
291.276825	1064.943726	2965.003662	1515.496826	23.712574
291.650757	1014.882263	3060.575439	1408.547363	19.243605
292.024597	1071.770264	3037.820313	1442.680176	18.865742
292.398407	996.678101	2978.656738	1419.924927	21.354763
292.772156	1023.984375	2903.564453	1385.792114	19.249392
293.145905	1017.157776	2819.370361	1438.129150	23.358585
293.519592	1001.229126	2691.941162	1417.649414	24.629877
293.893280	937.514587	2687.390137	1444.955688	28.998697
294.266907	967.096313	2801.166016	1429.027100	25.186108
294.640533	1030.810913	2871.707275	1444.955688	22.496908
295.014069	978.473938	3069.677490	1458.608887	22.959742
295.387604	955.718750	3249.443604	1463.159912	22.123018
295.761078	973.922913	3151.596191	1497.292725	24.033440
296.134552	1014.882263	3062.851074	1495.017212	23.444447
296.507996	1001.229126	3172.075928	1504.119263	23.165623
296.881378	1010.331238	3178.902588	1558.731689	25.288561
297.254730	1010.331238	3383.699463	1631.548462	26.174500
297.628021	962.545288	3545.261475	1677.058838	27.665197
298.001282	937.514587	3684.068115	1606.517700	24.357914
298.374573	1046.739624	3579.394287	1597.415649	21.743036
298.747803	1037.637451	3458.791504	1535.976563	20.582710
299.121002	1060.392700	3401.903564	1608.793213	23.420799
299.494141	973.922913	3185.729004	1501.843750	23.868315
299.867188	1010.331238	3074.228516	1485.915039	23.042999
300.240265	983.024963	3281.301025	1535.976563	24.059406
300.613312	1005.780212	3076.504150	1476.812988	22.747252
300.986328	985.300537	2990.034424	1547.354126	28.036320
301.359314	1023.984375	2889.911377	1451.782227	22.926826
301.732239	1026.259888	2965.003662	1444.955688	21.596243
302.105103	1039.912964	2999.136475	1447.231201	20.789780
302.477997	1026.259888	2896.738037	1501.843750	25.425791
302.850830	1053.566162	3021.891602	1444.955688	19.884392
303.223602	1017.157776	2801.166016	1469.986450	25.382654
303.596375	994.402588	2917.217773	1417.649414	22.011831
303.969116	1005.780212	2710.145264	1410.822876	23.765018
304.341766	978.473938	2805.717041	1483.639526	27.646326
304.714478	998.953613	2839.849854	1474.537476	25.834366
305.087067	1039.912964	2748.829102	1451.782227	24.101198
305.459656	1010.331238	2848.952148	1408.547363	21.658415
305.832214	1021.708862	2710.145264	1472.261963	26.684635
306.204681	1058.117188	2794.339600	1410.822876	20.314545
306.577148	980.749451	2723.798340	1433.578125	25.979116
306.949646	1003.504700	2864.880615	1508.670288	27.139362
307.322021	1021.708862	2812.543701	1426.751587	22.617537
307.694397	978.473938	2801.166016	1485.915039	27.840199
308.066742	1010.331238	2830.747803	1413.098389	22.125000
308.439026	948.892151	2903.564453	1533.701050	29.918512
308.811279	1067.219238	3015.064941	1499.568237	22.196266
309.183502	967.096313	3033.269287	1440.404663	22.907490
309.555695	985.300537	3065.126465	1458.608887	22.757114
309.927887	962.545288	3081.055176	1469.986450	23.952742
310.299988	1012.606750	3078.779541	1458.608887	21.585907
310.672058	1080.872437	3231.239502	1517.772339	20.317455
311.044128	1094.525513	3224.413086	1579.211426	22.756407
311.416168	1087.698975	3265.372314	1586.037964	22.884010
311.788147	951.167725	3106.085938	1510.945801	25.976767
312.160065	992.127075	3215.310791	1551.905151	25.179121
312.531982	1042.188477	3206.208740	1545.078613	23.238699
312.903870	1019.433350	3147.045166	1456.333252	20.534756
313.275696	1037.637451	3062.851074	1456.333252	20.674154
313.647491	1060.392700	3035.544678	1467.710938	20.622122
314.019318	1051.290649	3092.432861	1479.088501	20.958748
314.391022	946.616638	2969.554688	1474.537476	26.096739
314.762726	967.096313	3181.177979	1522.323364	25.077082
315.134369	1030.810913	3231.239502	1483.639526	20.579109
315.505981	980.749451	3304.056152	1495.017212	22.135164
315.877594	1046.739624	3358.668701	1476.812988	18.602358
316.249146	1019.433350	3242.617188	1561.007324	24.360287
316.620636	1014.882263	3071.953125	1545.078613	25.774336
316.992157	1019.433350	3135.667725	1465.435425	21.075268
317.363586	1028.535400	2955.901611	1326.628662	15.466353
317.735016	1049.015137	2792.063965	1472.261963	24.281982
318.106354	1028.535400	2958.177002	1417.649414	20.165092
318.477722	1051.290649	2951.350586	1476.812988	22.395206
318.849060	1008.055725	2996.860840	1492.741699	24.370712
319.220306	1026.259888	2978.656738	1474.537476	22.960373
319.591522	976.198425	3110.636963	1465.435425	22.921110
319.962738	987.576050	3142.494141	1451.782227	21.541710
320.333923	1028.535400	3096.983887	1415.373901	18.701868
320.705017	1051.290649	3081.055176	1499.568237	22.085201
321.076111	1053.566162	3037.820313	1454.057739	20.183481
321.447144	1026.259888	3017.340576	1431.302612	20.342859
321.818176	976.198425	2835.298828	1460.884399	26.070995
322.189178	994.402588	2953.625977	1363.036987	18.815332
322.560120	1023.984375	2880.809326	1501.843750	25.735294
322.931030	944.341125	2996.860840	1451.782227	24.722836
323.301910	983.024963	3040.095703	1440.404663	22.234514
323.672729	1012.606750	3119.739014	1419.924927	19.330450
324.043549	989.851563	3269.923340	1431.302612	19.361279
324.414337	1010.331238	3486.097900	1531.425537	21.047796
324.785095	1058.117188	3554.363525	1686.160889	25.159525
325.155792	948.892151	3672.690674	1485.915039	19.715954
325.526428	1010.331238	3661.312988	1460.884399	16.995710
325.897034	1080.872437	3447.414063	1556.456177	20.096151
326.267670	1012.606750	3436.036377	1551.905151	22.253519
326.638184	962.545288	3451.965088	1624.721802	26.599630
327.008728	1028.535400	3631.731201	1542.803101	19.755245
327.379211	1067.219238	3429.209961	1595.140137	22.350676
327.749634	980.749451	3547.536865	1504.119263	20.390074
328.120026	1060.392700	3392.801514	1497.292725	18.731710
328.490417	996.678101	3438.312012	1499.568237	20.596460
328.860748	992.127075	3379.148438	1520.047852	22.116297
329.231079	996.678101	3317.709229	1513.221313	22.254902
329.601318	1042.188477	3383.699463	1520.047852	20.408163
329.971558	971.647400	3304.056152	1449.506714	20.487804
330.341736	1023.984375	3290.403076	1483.639526	20.281122
330.711914	1014.882263	3317.709229	1551.905151	23.320158
331.082062	948.892151	3351.842041	1474.537476	21.875000
331.452148	998.953613	3299.505127	1490.466064	21.364983
331.822174	1080.872437	3351.842041	1460.884399	16.733467
332.192200	998.953613	3354.117676	1526.874512	22.415462
332.562134	1028.535400	3465.618164	1497.292725	19.234362
332.932129	992.127075	3581.669678	1463.159912	18.189810
333.302063	976.198425	3615.802490	1456.333252	18.189653
333.671906	1067.219238	3811.497314	1640.650513	20.895523
334.041718	1033.086426	3827.426025	1590.588989	19.951138
334.411499	983.024963	3740.956299	1547.354126	20.462046
334.781281	1042.188477	3779.640137	1533.701050	17.955114
335.151001	1078.596802	3843.354736	1524.598877	16.131687
335.520721	1028.535400	3581.669678	1538.252075	19.964350
335.890350	1008.055725	3513.404053	1533.701050	20.980927
336.259979	1028.535400	3663.588379	1520.047852	18.652849
336.629547	1019.433350	3659.037354	1513.221313	18.706896
336.999084	1017.157776	3784.191162	1506.394775	17.680922
337.368622	944.341125	3722.751953	1495.017212	19.819822
337.738098	978.473938	3754.609375	1576.935913	21.557377
338.107513	987.576050	3816.048340	1556.456177	20.112629
338.476898	1058.117188	3743.231689	1510.945801	16.864407
338.846252	932.963501	3795.568604	1556.456177	21.780605
339.215576	1001.229126	3754.609375	1583.762451	21.157022
339.584869	1074.045776	3834.252441	1565.558350	17.807095
339.954132	1033.086426	3745.507324	1611.068726	21.308725
340.323334	1039.912964	3747.782715	1517.772339	17.647060
340.692505	1046.739624	3624.904541	1556.456177	19.770517
341.061646	967.096313	3520.230713	1538.252075	22.370770
341.430786	1026.259888	3706.823486	1597.415649	21.307302
341.799896	992.127075	3661.312988	1533.701050	20.289854
342.168915	1053.566162	3784.191162	1549.629639	18.166664
342.537903	1080.872437	3957.130615	1529.150024	15.585443
342.906830	983.024963	3973.059326	1581.486938	20.015221
343.275757	985.300537	4004.916504	1626.997314	21.250940
343.644684	978.473938	4109.590332	1636.099487	21.002909
344.013550	1030.810913	4139.172363	1595.140137	18.155201
344.382355	973.922913	4227.917480	1652.028076	20.839161
344.751129	960.269775	4357.622559	1688.436401	21.433353
345.119873	1035.361938	4516.908691	1784.008301	21.503267
345.488586	1008.055725	4687.572754	1692.987427	18.614717
345.857269	1028.535400	4896.920898	1774.906250	19.294117
346.225891	1014.882263	4974.288574	1779.457275	19.310345
346.594482	1044.463989	4876.440918	1863.651489	21.377672
346.963043	1049.015137	4940.155762	1749.875488	18.011694
347.331543	983.024963	4539.664063	1754.426514	21.689058
347.700043	1017.157776	4646.613281	1727.120239	19.561129
348.068512	1005.780212	4455.469727	1784.008301	22.559366
348.436951	1039.912964	4218.815430	1695.262939	20.615606
348.805328	1053.566162	4264.326172	1663.405762	18.993622
349.173645	1089.974487	4314.387207	1576.935913	15.102330
349.541931	1078.596802	4232.468750	1674.783325	18.903320
349.910217	1083.147949	4323.489746	1642.926025	17.275278
350.278473	1076.321289	4466.847168	1679.334351	17.785236
350.646667	1049.015137	4523.735352	1670.232300	17.878193
351.014801	996.678101	4514.633301	1665.681274	19.016819
351.382935	1035.361938	4619.307129	1670.232300	17.714287
351.751007	1001.229126	4489.602539	1752.151001	21.526419
352.119049	1094.525513	4573.796875	1711.191650	17.724001
352.487091	1053.566162	4519.184082	1674.783325	17.925148
352.855072	1115.005249	4632.960449	1663.405762	15.588616
353.222992	1001.229126	4737.634277	1758.977539	20.280146
353.590881	955.718750	4785.420410	1747.599976	20.677361
353.958740	996.678101	4976.563965	1749.875488	18.925100
354.326599	1087.698975	5008.421387	1786.283813	17.817759
354.694397	1026.259888	5122.197266	1770.355225	18.166668
355.062134	992.127075	5295.136719	1829.518677	19.460602
355.429840	1046.739624	5297.412598	1947.845825	21.199142
355.797516	948.892151	5402.086426	1943.294800	22.330097
356.165192	1071.770264	5399.811035	1856.824951	18.138800
356.532776	1026.259888	5681.975586	1870.478149	18.132942
356.900360	992.127075	5777.547363	1950.121338	20.019020
357.267883	1010.331238	5977.792969	1918.264038	18.277599
357.635376	1119.556274	6180.314453	1991.080688	17.221222
358.002808	1008.055725	6542.122070	2127.612061	20.230267
358.370270	1046.739624	6769.674316	2141.265137	19.125250
358.737640	1026.259888	6815.184570	2063.897461	17.924530
359.105011	1019.433350	6526.193848	2157.193604	20.661154
359.472321	1030.810913	6271.335449	2075.274902	19.930525
359.839569	1051.290649	6241.753418	2011.560425	18.500658
360.206787	1069.494751	6214.447266	1941.019287	16.939409
360.574005	964.820801	6435.172852	2041.142212	19.675543
360.941193	1021.708862	6888.001465	2088.927979	18.192396
361.308319	994.402588	7156.512695	2179.948975	19.239292
361.675415	983.024963	7732.219727	2316.480225	19.757250
362.042450	1049.015137	8323.855469	2393.847900	18.486080
362.409424	1014.882263	8644.703125	2443.909424	18.729498
362.776428	1010.331238	8606.019531	2523.552490	19.922108
363.143402	980.749451	8287.446289	2437.082764	19.931486
363.510284	994.402588	8014.384277	2321.031250	18.897894
363.877136	1042.188477	7217.952148	2109.407715	17.280766
364.243988	1064.943726	6578.530762	2047.968750	17.829138
364.610779	969.371887	6378.284668	2104.856689	20.992849
364.977539	1021.708862	6262.233398	2036.591064	19.366043
365.344269	1074.045776	6112.048828	1938.743774	17.163507
365.710938	969.371887	6166.661133	1966.049927	19.176884
366.077576	946.616638	5911.803223	1972.876587	20.669113
366.444183	973.922913	5768.445313	1893.233276	19.174179
366.810760	1033.086426	5761.618652	1975.152100	19.923004
367.177277	1046.739624	5918.629395	1966.049927	18.869686
367.543823	1003.504700	5891.323242	1847.722900	17.271881
367.910248	1019.433350	5898.149902	1893.233276	17.910446
368.276642	976.198425	5893.598633	1811.314575	16.982880
368.643036	1001.229126	5659.220215	1784.008301	16.805080
369.009399	1023.984375	5575.025879	1913.713013	19.550001
369.375671	994.402588	5818.506836	1834.069824	17.405661
369.741974	983.024963	5741.139160	1904.610962	19.368723
370.108215	1037.637451	5693.353027	1747.599976	15.249267
370.474396	983.024963	5770.720703	1865.927002	18.441063
370.840546	1039.912964	5859.465820	1959.223389	19.074600
371.206665	930.687988	5893.598633	1870.478149	18.936270
371.572784	994.402588	5823.057617	1877.304688	18.284637
371.938843	1092.250000	6218.998535	1913.713013	16.023081
372.304840	1028.535400	6027.854492	1961.498901	18.661810
372.670807	1105.903076	5875.394531	1981.978638	18.368322
373.036713	957.994263	6021.027832	1884.131226	18.292135
373.402649	969.371887	5752.516602	1884.131226	19.124643
373.768524	955.718750	5795.751465	1970.601074	20.968502
374.134308	985.300537	5909.527344	1913.713013	18.853975
374.500122	1014.882263	6057.436523	1961.498901	18.772562
374.865875	998.953613	6180.314453	1966.049927	18.664909
375.231567	1096.801025	6100.671387	1950.121338	17.053207
375.597260	1003.504700	6153.008301	1977.427612	18.912949
375.962891	1012.606750	6376.009277	1984.254150	18.116251
376.328461	971.647400	6649.071777	1947.845825	17.194389
376.694031	1035.361938	6735.541504	2038.866699	17.604792
377.059540	1026.259888	6983.573242	2127.612061	18.487396
377.425049	1026.259888	7365.860840	2111.683350	17.121321
377.790497	1035.361938	7591.137207	2136.714111	16.799725
378.155945	1003.504700	7739.046387	2154.918213	17.094595
378.521301	1037.637451	7625.270020	2236.836914	18.203800
378.886597	1099.076538	7493.290039	2084.376953	15.409251
379.251892	1051.290649	7181.543457	2088.927979	16.926500
379.617157	1026.259888	6958.542480	2072.999512	17.644804
379.982422	1039.912964	6769.674316	2082.101563	18.189041
380.347595	1026.259888	6619.490234	2022.937988	17.819365
380.712738	1028.535400	6660.449219	1975.152100	16.808081
381.077820	1008.055725	6710.510742	1988.805176	17.198723
381.442902	1060.392700	6626.316406	1911.437500	15.290271
381.807953	994.402588	6662.725098	2059.346436	18.787638
382.172974	1012.606750	6956.267090	1941.019287	15.620215
382.537933	1028.535400	6585.357422	1925.090576	16.134314
382.902832	955.718750	6637.694336	1991.080688	18.221865
383.267700	1142.311401	6853.868652	2032.040039	15.577689
383.632538	980.749451	7006.328613	2043.417725	17.635952
383.997345	1044.463989	7083.696289	2052.519775	16.691786
384.362152	1021.708862	7279.391113	2123.060791	17.599998
384.726898	1044.463989	7197.472168	2079.825928	16.826923
385.091553	1044.463989	7429.575195	2111.683350	16.714186
385.456238	1023.984375	7334.003418	2018.386963	15.759106
385.820862	976.198425	7420.473145	2088.927979	17.266947
386.185425	955.718750	7504.667480	2116.234375	17.720640
386.549988	998.953613	7459.157227	2127.612061	17.470942
386.914490	976.198425	7770.903320	2157.193604	17.381109
387.278961	1019.433350	7636.647949	2145.816162	17.022007
387.643372	878.351013	8000.730957	2018.386963	16.006390
388.007782	998.953613	7859.648926	2084.376953	15.820894
388.372101	992.127075	7843.720215	2132.163086	16.638992
388.736450	985.300537	7775.454590	2148.091553	17.124662
389.100739	980.749451	7734.495117	2109.407715	16.711590
389.464966	1019.433350	7629.821289	2095.754639	16.282272
389.829163	1046.739624	7825.516113	2152.642578	16.314198
390.193329	1055.841675	7588.861816	2075.274902	15.604318
390.557495	1028.535400	7909.710449	2159.469238	16.435184
390.921570	1076.321289	7850.546875	2088.927979	14.947933
391.285614	1023.984375	8068.996582	2123.060791	15.600774
391.649597	1021.708862	8405.773438	2225.459229	16.302002
392.013550	989.851563	8951.898438	2261.867676	15.975994
392.377502	1012.606750	9054.296875	2277.796387	15.732883
392.741455	973.922913	9017.888672	2088.927979	13.861385
393.105316	1067.219238	9038.368164	2141.265137	13.474167
393.469086	951.167725	8904.113281	2191.326416	15.593703
393.832886	1064.943726	8578.713867	2116.234375	13.991520
394.196655	1017.157776	9006.511719	2191.326416	14.696667
394.560333	980.749451	8997.409180	2182.224365	14.987226
394.924042	1051.290649	9086.154297	2207.255127	14.386858
395.287659	1053.566162	9052.021484	2145.816162	13.655762
395.651245	1042.188477	9020.164063	2227.734863	14.860241
396.014771	951.167725	8744.826172	2095.754639	14.686131
396.378296	1060.392700	8437.630859	2011.560425	12.893276
396.741791	946.616638	8278.344727	2070.723877	15.332090
397.105255	989.851563	8082.649902	2050.244141	14.950271
397.468628	1042.188477	7998.455566	2059.346436	14.622181
397.832001	1019.433350	7966.598145	1927.366089	13.069112
398.195313	992.127075	8253.313477	2020.662476	14.164840
398.558624	1030.810913	7927.914551	1961.498901	13.493896
398.921844	1067.219238	8094.027344	1986.529663	13.082902
399.285095	1042.188477	8207.803711	1929.641602	12.384884
399.648254	1089.974487	8191.875000	1877.304688	11.086190
400.011383	976.198425	8162.292969	1950.121338	13.552881
400.374451	955.718750	8194.150391	2066.172852	15.341087
400.737549	1030.810913	8280.620117	1945.570313	12.617703
401.100586	976.198425	8121.333984	1925.090576	13.280253
401.463562	994.402588	8155.466797	1970.601074	13.632030
401.826508	896.555176	8458.110352	1984.254150	14.384594
402.189392	1005.780212	8062.170410	1943.294800	13.286036
402.552246	1026.259888	8330.681641	1943.294800	12.554518
402.915070	1010.331238	8373.916992	2018.386963	13.689739
403.277893	1010.331238	8380.743164	1956.947876	12.843470
403.640656	1014.882263	8662.907227	1988.805176	12.734306
404.003326	1062.668213	9029.266602	2007.009399	11.853756
404.366028	1046.739624	9038.368164	2045.693237	12.500001
404.728699	994.402588	9240.889648	1941.019287	11.479030
405.091248	951.167725	9561.738281	2054.795166	12.817123
405.453857	926.136963	9445.686523	2013.835938	12.767095
405.816345	967.096313	9520.779297	2032.040039	12.450120
406.178833	1019.433350	9432.034180	2004.733887	11.712199
406.541260	1005.780212	9468.442383	2034.315552	12.153805
406.903687	985.300537	9309.155273	1843.171875	10.306179
407.266052	1051.290649	9236.338867	2018.386963	11.815401
407.628387	989.851563	9049.746094	1854.549438	10.728402
407.990662	1035.361938	8981.480469	1931.917114	11.282932
408.352905	1023.984375	8999.684570	1845.447388	10.299572
408.715118	962.545288	8924.592773	1868.202637	11.374680
409.077332	994.402588	8933.694336	1959.223389	12.152479
409.439484	932.963501	8772.132813	1865.927002	11.901305
409.801575	1046.739624	9174.899414	1802.212524	9.294514
410.163605	1028.535400	9304.604492	1902.335449	10.558153
410.525635	1012.606750	9427.482422	1897.784302	10.519199
410.887604	987.576050	9520.779297	1840.896362	10.000000
411.249573	1037.637451	9743.780273	1936.468262	10.324100
411.611481	1089.974487	9507.125977	1790.834839	8.326574
411.973328	1010.331238	9559.462891	1847.722900	9.795049
412.335144	1078.596802	9650.483398	1872.753662	9.264668
412.696930	1099.076538	9300.053711	1781.732788	8.324084
413.058685	1083.147949	9231.788086	1843.171875	9.327003
413.420410	1051.290649	9363.768555	1799.937012	9.006296
413.782104	1087.698975	9427.482422	1756.702026	8.021828
414.143707	980.749451	9434.309570	1786.283813	9.528935
414.505310	1092.250000	9407.002930	1856.824951	9.195402
414.866852	1019.433350	9736.953125	1781.732788	8.744453
415.228394	1003.504700	9661.861328	1756.702026	8.699080
415.589874	1033.086426	10003.189453	1713.467163	7.584982
415.951324	937.514587	10157.924805	1765.804199	8.983219
416.312683	1080.872437	10415.058594	1845.447388	8.191126
416.674072	985.300537	10469.670898	1740.773438	7.965452
417.035370	978.473938	10924.775391	1779.457275	8.053077
417.396667	1003.504700	10961.183594	1802.212524	8.021025
417.757935	1064.943726	10970.286133	1863.651489	8.063403
418.119141	1055.841675	11334.369141	1736.222412	6.619438
418.480286	1049.015137	11703.003906	1731.671387	6.407518
418.841400	1058.117188	12522.191406	1925.090576	7.562524
419.202484	1021.708862	12820.284180	1890.957764	7.367406
419.563568	1033.086426	13027.356445	1979.703125	7.892241
419.924591	1014.882263	13803.309570	1934.192627	7.188612
420.285553	1030.810913	14037.687500	1972.876587	7.242827
420.646484	1042.188477	14913.763672	1918.264038	6.315617
421.007355	1051.290649	15462.164063	2070.723877	7.074056
421.368225	1026.259888	16101.584961	2127.612061	7.305661
421.729065	1089.974487	16479.322266	2098.030273	6.550348
422.089874	987.576050	17364.500000	2170.846924	7.225233
422.450592	983.024963	17084.609375	2145.816162	7.221595
422.811279	996.678101	16911.669922	2084.376953	6.834429
423.171936	976.198425	16624.955078	2120.785400	7.314235
423.532593	969.371887	16363.270508	2157.193604	7.716186
423.893127	939.790100	16736.455078	2125.336426	7.505042
424.253723	1010.331238	16975.384766	2127.612061	6.998290
424.614197	1003.504700	16904.843750	2227.734863	7.698913
424.974670	1001.229126	17860.562500	2270.969727	7.531381
425.335052	1037.637451	17762.714844	2175.397949	6.802722
425.695496	1055.841675	16866.160156	2248.214600	7.541739
426.055817	1076.321289	17130.121094	2125.336426	6.534373
426.416168	967.096313	16818.375000	2198.153076	7.766293
426.776398	930.687988	16001.461914	2075.274902	7.594746
427.136627	1055.841675	15282.397461	2175.397949	7.869482
427.496826	1053.566162	15086.703125	2134.438477	7.702286
427.856995	1060.392700	14579.261719	2007.009399	7.002189
428.217102	905.657288	14019.483398	2011.560425	8.433107
428.577179	985.300537	13898.880859	2063.897461	8.352424
428.937195	1055.841675	13616.716797	2104.856689	8.351449
429.297180	987.576050	13204.847656	1952.396851	7.897187
429.657135	969.371887	13293.592773	1981.978638	8.216395
430.017059	887.453125	13091.071289	1988.805176	9.024799
430.376984	1026.259888	13015.978516	1986.529663	8.009110
430.736786	1017.157776	12997.774414	2034.315552	8.490029
431.096588	1014.882263	12745.192383	1829.518677	6.944713
431.456360	989.851563	12899.927734	1900.059814	7.642338
431.816071	957.994263	12488.058594	1950.121338	8.604696
432.175781	1026.259888	12676.926758	1952.396851	7.949218
432.535400	944.341125	12747.467773	1938.743774	8.424909
432.895020	1005.780212	12640.517578	1936.468262	7.999218
433.254578	1012.606750	12833.937500	1934.192627	7.795957
433.614105	1108.178589	12959.090820	1906.886475	6.739632
433.973602	1008.055725	13345.929688	1875.029175	7.026927
434.333038	1096.801025	13480.185547	1884.131226	6.357956
434.692444	1028.535400	13648.574219	1838.620850	6.419041
435.051819	1062.668213	13755.523438	1950.121338	6.991753
435.411133	1001.229126	13762.349609	1995.631714	7.792439
435.770416	1008.055725	12706.507813	1790.834839	6.691305
436.129669	1019.433350	13646.297852	2016.111450	7.893314
436.488861	1055.841675	13582.583984	1890.957764	6.666666
436.848083	951.167725	13154.786133	1886.406738	7.663621
437.207184	985.300537	13409.644531	1861.375977	7.051281
437.566254	1051.290649	13618.992188	1943.294800	7.097592
437.925293	962.545288	13618.992188	1818.141113	6.760158
438.284363	989.851563	13593.960938	1906.886475	7.275682
438.643311	1046.739624	13871.575195	1865.927002	6.387507
439.002258	978.473938	13905.708008	1854.549438	6.776976
439.361145	1005.780212	14258.413086	1831.794189	6.232829
439.719971	1055.841675	15034.366211	1906.886475	6.088231
440.078827	998.953613	15066.223633	1831.794189	5.920414
440.437592	962.545288	15662.410156	1956.947876	6.764706
440.796295	1067.219238	15687.440430	1920.539551	5.836576
441.155029	1105.903076	16645.435547	1972.876587	5.579148
441.513672	1044.463989	17287.130859	1918.264038	5.379659
441.872253	1069.494751	16870.710938	1913.713013	5.342742
442.230865	1003.504700	16558.964844	1929.641602	5.953774
442.589386	1028.535400	16499.800781	1843.171875	5.265481
442.947876	1062.668213	16085.656250	1888.682251	5.498334
443.306335	1023.984375	15837.625000	1884.131226	5.806451
443.664764	980.749451	15243.713867	1824.967651	5.918953
444.023102	1026.259888	15676.062500	1843.171875	5.576266
444.381500	1039.912964	15284.672852	1888.682251	5.958467
444.739777	1023.984375	15735.226563	1840.896362	5.552978
445.098022	1003.504700	15892.237305	1795.385864	5.318661
445.456238	1094.525513	15849.001953	1897.784302	5.444170
445.814423	1003.504700	16201.708008	1856.824951	5.614613
446.172577	989.851563	17237.070313	1888.682251	5.532213
446.530701	935.239075	17180.181641	1966.049927	6.345426
446.888733	1035.361938	17885.593750	1886.406738	5.050642
447.246765	998.953613	18686.576172	2084.376953	6.136626
447.604736	1010.331238	18008.470703	1945.570313	5.502009
447.962677	1014.882263	18183.687500	1938.743774	5.381047
448.320587	1005.780212	18363.453125	1970.601074	5.558469
448.678436	1049.015137	18151.830078	1959.223389	5.321980
449.036255	1005.780212	17771.818359	1995.631714	5.903908
449.394043	1003.504700	16533.933594	1972.876587	6.241759
449.751770	1028.535400	17109.640625	1979.703125	5.914815
450.109467	1003.504700	16483.873047	1995.631714	6.408937
450.467163	1044.463989	16372.372070	1997.907227	6.220309
450.824768	1010.331238	16017.390625	2061.621826	7.005307
451.182343	1035.361938	16267.698242	2020.662476	6.468480
451.539886	1033.086426	15546.358398	1929.641602	6.177485
451.897369	1035.361938	15771.634766	2098.030273	7.211243
452.254822	942.065613	15396.173828	2054.795166	7.698361
452.612274	985.300537	16006.013672	2098.030273	7.407969
452.969635	1035.361938	15689.715820	2154.918213	7.639752
453.326965	980.749451	15764.808594	2280.071777	8.788671
453.684326	1019.433350	15425.755859	2177.673340	8.039804
454.041534	967.096313	15271.020508	2323.306641	9.481387
454.398773	983.024963	15034.366211	2321.031250	9.522268
454.755951	1021.708862	14340.332031	2284.622803	9.482316
455.113098	1042.188477	14087.749023	2305.102539	9.680796
455.470215	1019.433350	14294.821289	2439.358398	10.695922
455.827240	1046.739624	14085.473633	2434.807373	10.645724
456.184265	980.749451	13801.033203	2464.388916	11.572594
456.541260	1046.739624	14060.443359	2500.797363	11.173281
456.898193	1039.912964	14140.085938	2589.542725	11.829079
457.255096	987.576050	14360.811523	2696.492188	12.778629
457.611969	1014.882263	14078.647461	2705.594238	12.941996
457.968781	1005.780212	13919.360352	2748.829102	13.497797
458.325531	1078.596802	14208.351563	2992.309814	14.575390
458.682312	1080.872437	15170.897461	3010.513916	13.695088
459.039001	1039.912964	15614.624023	3185.729004	14.722871
459.395630	1014.882263	16395.126953	3240.341553	14.469595
459.752289	1064.943726	17840.083984	3552.087891	14.826367
460.108856	998.953613	18936.884766	3909.344727	16.224787
460.465363	1023.984375	19926.736328	4023.120850	15.866137
460.821899	980.749451	19778.826172	4084.559814	16.511318
461.178345	1035.361938	19248.630859	4218.815430	17.478760
461.534760	1003.504700	19164.435547	4164.203125	17.403835
461.891144	1017.157776	17958.410156	4086.835449	18.119545
462.247467	1030.810913	17052.751953	4007.192139	18.576908
462.603760	1074.045776	16872.986328	4157.376465	19.516060
462.960052	1021.708862	16085.656250	3884.313965	19.003021
463.316254	1008.055725	15343.836914	3897.967041	20.158730
463.672424	1012.606750	15186.826172	3961.681641	20.805906
464.028564	996.678101	14640.701172	3891.140625	21.214142
464.384644	923.861450	14861.426758	3966.232666	21.828569
464.740723	987.576050	15020.712891	4068.631104	21.955570
465.096741	996.678101	14931.967773	4125.519043	22.452642
465.452698	1005.780212	14850.048828	4150.549805	22.715317
465.808655	1014.882263	15086.703125	4330.315918	23.560799
466.164520	932.963501	14636.149414	4355.346680	24.975092
466.520355	1044.463989	15742.052734	4439.541016	23.099552
466.876190	1014.882263	15742.052734	4598.827637	24.335600
467.231964	969.371887	15614.624023	4630.685059	25.000002
467.587677	1105.903076	16049.248047	4853.686035	25.079947
467.943390	976.198425	16326.861328	4901.471680	25.570707
468.299011	1001.229126	15671.511719	4805.899902	25.934546
468.654633	1046.739624	15391.623047	4815.001953	26.269033
469.010223	1051.290649	15471.265625	4999.319336	27.378889
469.365723	1012.606750	15095.804688	4887.818848	27.516563
469.721191	1019.433350	15318.805664	4894.645020	27.100573
470.076660	980.749451	14638.425781	4835.481934	28.223925
470.432068	987.576050	14952.447266	4844.583984	27.619358
470.787445	973.922913	14738.547852	5060.758301	29.690859
471.142792	973.922913	14952.447266	4946.982422	28.422596
471.498016	1008.055725	15013.886719	5108.544434	29.277012
471.853271	1003.504700	15129.937500	5129.023926	29.204252
472.208496	1060.392700	14802.262695	5254.177734	30.518301
472.563660	998.953613	15143.590820	5308.790039	30.469757
472.918762	1117.280762	15389.347656	5245.075684	28.922195
473.273865	1042.188477	15598.695313	5388.433105	29.857744
473.628876	1060.392700	15946.849609	5650.118164	30.831551
473.983917	1012.606750	16167.575195	5681.975586	30.810810
474.338837	1083.147949	16049.248047	5809.404785	31.579750
474.693787	987.576050	16224.462891	5691.077637	30.869177
475.048645	1101.352051	15926.370117	5686.526367	30.928627
475.403503	1069.494751	16169.850586	5907.251953	32.037373
475.758270	980.749451	16495.250000	5904.976563	31.739513
476.113037	1110.454102	16547.587891	5886.772461	30.940449
476.467773	976.198425	16408.781250	5902.701172	31.922737
476.822418	1058.117188	17676.246094	6378.284668	32.014240
477.177063	1062.668213	17132.396484	6303.192383	32.611156
477.531647	980.749451	17414.560547	6444.274902	33.245640
477.886200	1008.055725	18201.890625	6599.010254	32.517208
478.240723	1005.780212	18295.187500	6781.051758	33.403522
478.595184	985.300537	19080.242188	6963.093750	33.035713
478.949585	1037.637451	18961.914063	7122.379883	33.946930
479.303986	1051.290649	19321.447266	7161.063965	33.441277
479.658325	1042.188477	19337.375000	7192.921387	33.619404
480.012634	1035.361938	19423.845703	7340.830078	34.290310
480.366913	996.678101	20224.828125	7438.677734	33.502960
480.721130	1046.739624	20661.728516	7648.025391	33.654293
481.075317	1069.494751	21223.783203	7918.812500	33.984417
481.429474	1115.005249	22045.246094	8260.140625	34.137856
481.783569	989.851563	23123.841797	8612.846680	34.440220
482.137604	1071.770264	24163.755859	9174.899414	35.090652
482.491669	1030.810913	26459.755859	9932.648438	35.006714
482.845612	1030.810913	29160.798828	10801.897461	34.735481
483.199554	1074.045776	33149.785156	12390.210938	35.279514
483.553436	998.953613	38524.566406	14624.772461	36.310715
483.907318	1003.504700	45344.304688	16968.558594	36.005333
484.261139	983.024963	51326.648438	19815.234375	37.407337
484.614899	1026.259888	54510.101563	21219.232422	37.755280
484.968628	973.922913	54027.691406	20984.853516	37.718204
485.322357	1039.912964	50866.992188	19467.080078	36.982235
485.675964	971.647400	47758.628906	18261.054688	36.953461
486.029572	1023.984375	43282.679688	16827.476563	37.397018
486.383148	1010.331238	40351.808594	15730.675781	37.416859
486.736694	1049.015137	38822.660156	14788.609375	36.373493
487.090149	1012.606750	38583.730469	14893.283203	36.945065
487.443604	1028.535400	39628.195313	15282.397461	36.927429
487.796997	1035.361938	41382.621094	16263.147461	37.741810
488.150360	1023.984375	42925.425781	16918.498047	37.933094
488.503693	1030.810913	43594.425781	16993.589844	37.503345
488.856964	1023.984375	42408.882813	16593.097656	37.620277
489.210175	983.024963	40272.167969	16006.013672	38.236996
489.563416	983.024963	38008.023438	14790.884766	37.293339
489.916565	1037.637451	35844.003906	14003.554688	37.251568
490.269653	1062.668213	33297.695313	13145.683594	37.484119
490.622772	1001.229126	32132.628906	12874.896484	38.140484
490.975769	1060.392700	32842.589844	13132.030273	37.982388
491.328735	1010.331238	33934.839844	13623.542969	38.309494
491.681732	978.473938	36201.261719	14219.729492	37.592865
492.034607	1003.504700	37976.167969	15332.458984	38.755535
492.387482	973.922913	39063.867188	15512.225586	38.168346
492.740326	1001.229126	37571.125000	15086.703125	38.516582
493.093079	985.300537	36239.945313	14344.882813	37.894531
493.445862	1028.535400	32954.093750	13434.674805	38.859585
493.798523	932.963501	30325.865234	12588.180664	39.653168
494.151215	1039.912964	28327.958984	11530.063477	38.442291
494.503815	964.820801	26236.753906	10613.029297	38.177567
494.856384	1023.984375	24600.656250	10073.730469	38.384323
495.208923	1067.219238	23574.394531	9898.515625	39.237694
495.561432	930.687988	22859.882813	9634.554688	39.690773
495.913879	1051.290649	22625.503906	9504.850586	39.183628
496.266296	1021.708862	22684.666016	9513.952148	39.201679
496.618683	1023.984375	22680.115234	9529.880859	39.277084
496.970978	980.749451	23408.283203	9773.362305	39.204548
497.323273	992.127075	24020.398438	9823.422852	38.349800
497.675507	994.402588	24147.826172	10107.863281	39.361179
498.027710	983.024963	23888.417969	9978.159180	39.270813
498.379852	1046.739624	23572.119141	9946.301758	39.509048
498.731995	985.300537	23344.568359	9812.045898	39.476898
499.084076	948.892151	22862.158203	9752.881836	40.176529
499.436096	971.647400	22666.462891	9584.493164	39.700016
499.788086	1008.055725	22391.125000	9470.717773	39.576462
500.140106	1051.290649	21822.244141	9092.981445	38.716042
500.491943	1023.984375	20848.322266	8931.418945	39.887508
500.843842	1021.708862	21160.068359	8876.806641	39.005650
501.195679	944.341125	20466.033203	8738.000000	39.923069
501.547455	976.198425	20277.166016	8596.917969	39.483616
501.899231	1051.290649	20197.523438	8703.867188	39.969101
502.250885	1028.535400	19947.214844	8439.906250	39.174885
502.602600	1051.290649	19785.654297	8442.182617	39.450993
502.954193	1033.086426	19669.601563	8458.110352	39.841267
503.305786	1014.882263	19894.878906	8314.752930	38.664577
503.657379	1042.188477	19983.623047	8703.867188	40.449306
504.008820	1037.637451	19753.796875	8492.243164	39.829781
504.360291	1087.698975	20277.166016	8722.071289	39.784180
504.711700	1049.015137	20147.460938	8678.835938	39.949959
505.063080	1071.770264	20190.695313	8690.213867	39.847652
505.414368	1055.841675	20272.615234	8774.408203	40.165779
505.765656	1089.974487	20070.093750	8640.152344	39.779400
506.116943	989.851563	20126.982422	8608.294922	39.809746
506.468109	1060.392700	20024.583984	8567.335938	39.584831
506.819305	1023.984375	19694.632813	8337.507813	39.171234
507.170410	1030.810913	19929.011719	8410.325195	39.048763
507.521484	964.820801	19719.664063	8535.478516	40.366413
507.872559	1033.086426	19860.746094	8694.764648	40.693737
508.223480	978.473938	19835.714844	8692.489258	40.907444
508.574493	1085.423462	20527.472656	8719.795898	39.267326
508.925385	1083.147949	20538.851563	9031.541992	40.853802
509.276245	1053.566162	20773.228516	8983.755859	40.214630
509.627045	1033.086426	21519.599609	9008.787109	38.931469
509.977814	1028.535400	21519.599609	8967.827148	38.745140
510.328613	1092.250000	21722.121094	9295.502930	39.763958
510.679260	1008.055725	21576.488281	9277.297852	40.203564
511.029999	1008.055725	21788.111328	9325.083984	40.024094
511.380585	1014.882263	22104.408203	9507.125977	40.267593
511.731140	1019.433350	22202.255859	9368.319336	39.413471
512.081726	1017.157776	22482.146484	9495.748047	39.499626
512.432129	1085.423462	22673.289063	9600.421875	39.443447
512.782654	996.678101	22486.697266	9734.677734	40.660736
513.133057	951.167725	23032.822266	9718.749023	39.705273
513.483398	1060.392700	22814.371094	9659.585938	39.529289
513.833801	1008.055725	22716.523438	9800.667969	40.503147
514.183960	1028.535400	22448.013672	9416.105469	39.158611
514.534302	998.953613	22070.275391	9584.493164	40.745136
514.884460	1012.606750	22083.929688	9411.553711	39.859612
515.234619	992.127075	22045.246094	9409.278320	39.980541
515.584717	1014.882263	21797.212891	9302.329102	39.877373
515.934753	1128.658325	21990.632813	9545.809570	40.346859
516.284851	1008.055725	22450.289063	9511.676758	39.658283
516.634766	1055.841675	22218.185547	9639.106445	40.559139
516.984741	957.994263	22566.339844	9862.107422	41.206825
517.334595	1062.668213	23658.589844	9944.026367	39.305138
517.684448	1008.055725	24029.500000	10189.782227	39.883366
518.034363	998.953613	24994.320313	10574.344727	39.905163
518.384094	962.545288	26125.253906	10836.030273	39.238564
518.733826	978.473938	27258.462891	11580.125000	40.341156
519.083496	1005.780212	27786.384766	11900.973633	40.683147
519.433167	983.024963	28391.673828	11887.320313	39.784138
519.782776	980.749451	28018.488281	11830.432617	40.127926
520.132324	1055.841675	27406.373047	11671.146484	40.284973
520.481873	996.678101	27067.320313	11404.910156	39.923191
520.831299	973.922913	26332.326172	11266.103516	40.586864
521.180786	928.412476	25538.169922	10808.723633	40.147942
521.530151	1033.086426	25333.373047	10674.467773	39.675995
521.879517	1019.433350	24898.748047	10567.518555	39.984753
522.228882	978.473938	24682.574219	10435.538086	39.896324
522.578064	978.473938	24318.490234	10041.873047	38.832020
522.927307	1044.463989	24666.644531	10446.916016	39.803490
523.276489	976.198425	24539.216797	10617.580078	40.917431
523.625610	978.473938	24946.535156	10549.314453	39.931644
523.974792	1064.943726	25497.210938	10751.835938	39.647949
524.323792	1001.229126	25706.558594	10788.244141	39.614994
524.672852	994.402588	26275.439453	10947.530273	39.369934
525.021790	978.473938	27524.699219	11341.195313	39.036518
525.370728	1035.361938	28537.306641	12160.382813	40.451759
525.719604	985.300537	29777.464844	12706.507813	40.709713
526.068420	1108.178589	31479.554688	13186.642578	39.769234
526.417297	992.127075	32901.753906	13782.829102	40.084148
526.765991	944.341125	33887.054688	14112.780273	39.973751
527.114746	1060.392700	35222.785156	14360.811523	38.932926
527.463379	1055.841675	36053.351563	14884.181641	39.512352
527.812012	1001.229126	38438.097656	15764.808594	39.435936
528.160706	1053.566162	41387.171875	17366.775391	40.445702
528.509155	985.300537	46315.949219	19248.630859	40.289143
528.857727	1039.912964	50969.390625	21294.324219	40.566040
529.206177	1005.780212	54070.925781	23035.097656	41.513725
529.554565	1012.606750	54073.199219	23328.638672	42.057636
529.902893	998.953613	52443.929688	22279.625000	41.365891
530.251221	1017.157776	50188.886719	20830.117188	40.293392
530.599548	1017.157776	45942.765625	19002.875000	40.034443
530.947876	1062.668213	42509.003906	17769.541016	40.309650
531.296021	1076.321289	39357.406250	16153.921875	39.386555
531.644165	1035.361938	36788.343750	15236.887695	39.721233
531.992249	1042.188477	35086.253906	14536.027344	39.636391
532.340454	1083.147949	34189.699219	13983.075195	38.964878
532.688354	1017.157776	34521.925781	14187.872070	39.309967
533.036438	1014.882263	35602.796875	14736.272461	39.671055
533.384338	1039.912964	37878.320313	15466.714844	39.162395
533.732239	1037.637451	39521.246094	16263.147461	39.563622
534.080139	1039.912964	39537.175781	16791.068359	40.915001
534.427917	978.473938	39336.929688	16329.137695	40.018982
534.775757	976.198425	37361.777344	15657.858398	40.350220
535.123474	998.953613	35639.207031	15048.019531	40.557053
535.471191	955.718750	33807.414063	14299.373047	40.617855
535.818848	1003.504700	32505.814453	13741.870117	40.436287
536.166382	1055.841675	31814.056641	13184.367188	39.431824
536.513977	1017.157776	31666.148438	13295.868164	40.062363
536.861511	1001.229126	31868.667969	13468.807617	40.390709
537.208984	1030.810913	32446.650391	13548.451172	39.844997
537.556396	1126.382813	31916.455078	13514.318359	40.233540
537.903809	1023.984375	31263.380859	13059.213867	39.799835
538.251160	1012.606750	30733.183594	12840.763672	39.797874
538.598389	1046.739624	29076.605469	12515.364258	40.915733
538.945740	973.922913	28252.867188	11939.657227	40.198532
539.292969	1023.984375	27486.015625	11937.381836	41.241722
539.640137	1026.259888	27957.048828	11746.238281	39.805660
539.987244	980.749451	27761.353516	11919.177734	40.844593
540.334351	932.963501	28810.369141	12265.056641	40.649738
540.681458	1021.708862	30639.886719	13330.000977	41.556545
541.028442	1039.912964	33350.031250	14365.363281	41.242344
541.375366	1055.841675	36401.507813	15926.370117	42.071712
541.722290	1039.912964	39264.113281	17391.804688	42.778900
542.069153	1055.841675	41400.824219	18183.687500	42.453468
542.416016	996.678101	40779.609375	18206.441406	43.259167
542.762756	1019.433350	40019.585938	17510.132813	42.283680
543.109558	1019.433350	38931.886719	17018.619141	42.200344
543.456299	1026.259888	36640.437500	16144.820313	42.450962
543.802917	1119.556274	35011.164063	15291.500000	41.815491
544.149536	985.300537	33793.757813	14916.039063	42.460815
544.496094	1023.984375	31297.513672	13630.369141	41.641609
544.842651	1071.770264	30237.121094	13207.123047	41.608799
545.189148	987.576050	28630.603516	12813.458008	42.780704
545.535583	1096.801025	27784.109375	12663.273438	43.340725
545.882019	1035.361938	26901.207031	12437.997070	44.083752
546.228333	1071.770264	26491.613281	12549.497070	45.152626
546.574707	1014.882263	26751.023438	12754.293945	45.614502
546.920898	942.065613	26657.726563	12574.528320	45.234940
547.267212	1023.984375	26755.574219	12551.772461	44.800140
547.613342	1049.015137	26541.673828	12312.842773	44.184597
547.959473	1035.361938	26193.519531	11894.147461	43.162083
548.305664	1008.055725	25442.597656	11677.972656	43.667351
548.651611	1035.361938	24455.021484	10881.540039	42.042358
548.997742	1028.535400	23385.527344	10403.680664	41.933842
549.343689	1064.943726	22402.501953	10073.730469	42.220329
549.689575	1049.015137	21763.080078	9741.504883	41.964195
550.035522	1049.015137	20896.107422	9375.145508	41.951389
550.381287	1001.229126	20322.675781	8824.469727	40.489933
550.727173	1026.259888	19974.521484	8612.846680	40.038433
551.072876	1062.668213	19280.488281	8485.416992	40.744442
551.418640	1021.708862	19439.773438	8417.151367	40.153202
551.764282	932.963501	19207.671875	8241.936523	39.995018
552.109863	973.922913	19280.488281	8357.988281	40.335617
552.455505	969.371887	19421.570313	8362.539063	40.066589
552.801025	1083.147949	20122.429688	8442.182617	38.651852
553.146545	1026.259888	20270.339844	8282.895508	37.708405
553.491943	948.892151	20111.052734	8232.833984	38.012112
553.837341	935.239075	20309.023438	8367.089844	38.360344
554.182800	957.994263	19999.552734	8383.018555	38.993786
554.528015	983.024963	19578.580078	8059.894531	38.056782
554.873352	1089.974487	19385.162109	7932.465332	37.400494
555.218628	1076.321289	19194.017578	7905.159180	37.691536
555.563721	1060.392700	18736.638672	7752.699219	37.860451
555.908875	1089.974487	18420.341797	7604.790527	37.591908
556.254028	1033.086426	17931.103516	7420.473145	37.799622
556.599121	1017.157776	17849.185547	7343.105469	37.582802
556.944031	985.300537	17860.562500	7274.839844	37.270763
557.289063	1033.086426	17730.857422	7240.707031	37.176342
557.633972	964.820801	17719.480469	7108.727051	36.669834
557.978882	1069.494751	17601.154297	7070.042969	36.297314
558.323792	973.922913	17553.367188	6994.951172	36.316227
558.668518	1012.606750	17373.601563	7008.604004	36.648121
559.013306	987.576050	17098.263672	6953.991699	37.033897
559.358032	1010.331238	17109.640625	6942.613770	36.848057
559.702637	969.371887	17095.988281	6910.756836	36.842106
560.047363	1019.433350	17102.814453	6803.807129	35.964912
560.391846	917.034912	17191.560547	6928.960938	36.940712
560.736450	1030.810913	17118.742188	6833.389160	36.067894
561.080933	1021.708862	16977.660156	6940.338379	37.093555
561.425354	1021.708862	17328.091797	6928.960938	36.226624
561.769775	1049.015137	17312.162109	7031.359375	36.784668
562.114136	989.851563	17692.173828	7133.757813	36.784744
562.458496	1030.810913	17416.835938	6933.511719	36.022774
562.802673	1026.259888	17412.285156	6881.174805	35.731148
563.146912	1108.178589	17093.712891	6833.389160	35.814945
563.491150	1053.566162	17059.580078	6822.011230	36.039238
563.835266	1101.352051	16948.078125	6758.296875	35.697876
564.179443	1058.117188	17239.345703	6680.929199	34.748981
564.523438	1103.627563	17091.437500	6762.847656	35.397095
564.867493	980.749451	17114.191406	6792.429688	36.022568
565.211426	1042.188477	17678.521484	6778.776367	34.482288
565.555359	983.024963	17692.173828	6867.521973	35.217216
565.899231	976.198425	18320.218750	6883.450195	34.059303
566.243042	983.024963	18700.230469	7297.595215	35.640896
566.586914	1060.392700	18768.496094	7434.126465	35.993317
566.930603	1023.984375	19339.650391	7456.881836	35.122379
567.274292	969.371887	19325.998047	7593.413086	36.085285
567.617981	998.953613	18879.996094	7418.197754	35.899719
567.961609	1014.882263	19139.406250	7320.350586	34.789703
568.305237	1012.606750	18536.392578	7163.339355	35.099339
568.648682	1044.463989	18340.697266	6990.399902	34.377060
568.992188	1064.943726	17919.726563	7042.736816	35.466450
569.335632	978.473938	17937.929688	6796.980469	34.308334
569.679016	971.647400	17994.818359	6876.624023	34.687874
570.022461	1058.117188	17733.132813	6715.062012	33.924675
570.365662	978.473938	17981.166016	6728.714844	33.819592
570.708984	987.576050	17746.787109	6767.398926	34.487438
571.052185	971.647400	18099.492188	7033.634766	35.392586
571.395386	1019.433350	18449.921875	6819.735840	33.276764
571.738525	1021.708862	18738.914063	6969.920410	33.573078
572.081604	1044.463989	19025.628906	7108.727051	33.725643
572.424683	957.994263	19378.335938	7115.553711	33.428043
572.767578	1046.739624	19817.509766	7547.902344	34.634502
573.110596	1046.739624	19407.916016	7238.431641	33.721653
573.453552	1053.566162	19733.316406	7256.635742	33.207455
573.796387	1019.433350	19287.314453	7056.390137	33.046837
574.139282	1051.290649	18823.107422	7106.451660	34.071705
574.481995	1101.352051	18606.933594	7022.257324	33.822956
574.824768	1003.504700	18488.607422	6851.593262	33.446117
575.167480	1028.535400	18643.341797	6867.521973	33.148170
575.510132	998.953613	18522.740234	6812.909180	33.177505
575.852722	1008.055725	18372.554688	6781.051758	33.245972
576.195251	1023.984375	18468.126953	6822.011230	33.237671
576.537842	1060.392700	18079.013672	6712.786133	33.212994
576.880188	960.269775	17767.265625	6715.062012	34.240456
577.222717	1017.157776	17673.970703	6671.827148	33.948090
577.565063	1035.361938	17168.804688	6389.662598	33.187592
577.907410	996.678101	16872.986328	6189.416504	32.707466
578.249756	951.167725	16279.076172	6116.600098	33.699528
578.591919	980.749451	16035.594727	6025.579102	33.509674
578.934204	994.402588	15771.634766	5870.843750	32.999695
579.276306	1001.229126	15484.918945	5832.159668	33.354282
579.618469	998.953613	15143.590820	5681.975586	33.108112
579.960571	1026.259888	15214.131836	5654.669434	32.622295
580.302551	971.647400	14713.517578	5513.586914	33.051830
580.644531	942.065613	14836.395508	5418.015137	32.214218
580.986511	1030.810913	14563.333008	5554.546387	33.428619
581.328369	1060.392700	14451.833008	5381.606934	32.268482
581.670227	1023.984375	14410.873047	5169.983398	30.970594
582.012024	1017.157776	14306.199219	5429.392578	33.202057
582.353821	1008.055725	14240.208984	5311.065430	32.519348
582.695496	951.167725	14176.494141	5192.738281	32.071575
583.037231	962.545288	14121.881836	5144.952637	31.782812
583.378845	1030.810913	14183.321289	5147.228027	31.297575
583.720398	1005.780212	13846.543945	5133.574707	32.146019
584.062012	994.402588	13942.116211	4924.227051	30.351494
584.403442	985.300537	13917.084961	5058.482910	31.497452
584.744934	1008.055725	13853.371094	5076.687012	31.674047
585.086365	1058.117188	13757.798828	4972.013184	30.818851
585.427734	1012.606750	13748.696289	5031.176270	31.552616
585.768982	1094.525513	13810.135742	4985.666016	30.601288
586.110291	1023.984375	13591.685547	4910.573730	30.925220
586.451599	1021.708862	13703.186523	4997.043457	31.347565
586.792725	1060.392700	13728.216797	4906.022949	30.357466
587.133850	1023.984375	13766.900391	4965.186523	30.928574
587.474915	1037.637451	13628.093750	4953.808594	31.104284
587.815979	992.127075	13646.297852	4951.533203	31.289337
588.157043	937.514587	13705.461914	4999.319336	31.812511
588.497925	978.473938	13894.330078	4887.818848	30.267796
588.838867	1067.219238	13568.930664	5010.696777	31.543503
589.179749	989.851563	13976.249023	4885.542969	29.998245
589.520569	1042.188477	13732.767578	5069.860352	31.737495
589.861450	1021.708862	14237.933594	4876.440918	29.166664
590.202087	957.994263	14044.514648	4994.768066	30.846809
590.542847	955.718750	14504.169922	4946.982422	29.459188
590.883484	1021.708862	14133.259766	4931.053711	29.816036
591.224121	1099.076538	14397.219727	4785.420410	27.720739
591.564636	1021.708862	14085.473633	4812.726563	29.019335
591.905151	1035.361938	14039.962891	4803.624512	28.976381
592.245667	1019.433350	13867.023438	4683.021973	28.515766
592.585999	1033.086426	13928.462891	4673.919922	28.233633
592.926453	1080.872437	13746.420898	4655.715332	28.224934
593.266724	1044.463989	13719.115234	4564.694824	27.773788
593.607056	955.718750	13707.737305	4744.460938	29.710920
593.947388	980.749451	13898.880859	4660.266602	28.483353
594.287476	1003.504700	14074.095703	4730.807617	28.516714
594.627686	1067.219238	14406.322266	4676.195313	27.055613
594.967773	1064.943726	14235.658203	4664.817871	27.332413
595.307861	1030.810913	14349.434570	4853.686035	28.703228
595.647888	1030.810913	14388.118164	4746.736328	27.819418
595.987854	962.545288	14731.721680	4849.134766	28.226738
596.327820	1033.086426	14972.926758	4692.124023	26.248777
596.667725	1069.494751	15480.368164	5012.972168	27.364599
597.007568	1096.801025	15842.175781	4876.440918	25.632715
597.347351	1037.637451	15912.716797	5108.544434	27.367296
597.687073	960.269775	16834.302734	5051.656250	25.774082
598.026794	1119.556274	16295.004883	4999.319336	25.566053
598.366455	1019.433350	15691.991211	4946.982422	26.767992
598.706116	998.953613	15669.236328	4726.256836	25.407166
599.045654	1121.831787	14975.202148	4746.736328	26.166229
599.385193	1028.535400	14322.127930	4500.979980	26.121189
599.724731	1083.147949	14010.381836	4482.775879	26.298183
600.064087	960.269775	13609.889648	4325.765137	26.605505
600.403564	1080.872437	13289.041016	4250.672852	25.964584
600.742920	1017.157776	13282.214844	4064.080078	24.842302
601.082153	1019.433350	13243.531250	4171.029785	25.781834
601.421387	1089.974487	13184.367188	4073.182129	24.666039
601.760620	973.922913	12961.366211	4036.773926	25.550495
602.099854	1051.290649	13034.183594	4141.447754	25.788074
602.438843	1008.055725	13145.683594	4114.141602	25.590551
602.778015	1130.933838	13473.358398	4141.447754	24.391592
603.117065	994.402588	13805.584961	4118.692871	24.387213
603.456055	1064.943726	14126.433594	4277.979004	24.599300
603.794983	1033.086426	14367.638672	4232.468750	23.993174
604.133850	1055.841675	15048.019531	4412.234863	23.987638
604.472778	1094.525513	15348.387695	4546.490723	24.217754
604.811584	1099.076538	15901.339844	4655.715332	24.027668
605.150330	1017.157776	16470.218750	4678.470703	23.693125
605.489075	994.402588	16515.730469	4676.195313	23.720861
605.827698	998.953613	16563.515625	4667.093262	23.567251
606.166382	1010.331238	16112.962891	4721.705566	24.574354
606.504883	1035.361938	15646.481445	4332.591797	22.566580
606.843445	967.096313	15063.947266	4298.458984	23.631966
607.181946	978.473938	14679.384766	4296.183105	24.215244
607.520386	980.749451	14192.422852	4145.999023	23.957975
607.858826	996.678101	13828.339844	3986.712402	23.302002
608.197083	967.096313	13905.708008	4043.600586	23.777702
608.535461	1021.708862	13275.388672	4025.396240	24.512535
608.873718	1033.086426	13669.053711	3932.099854	22.942553
609.211914	973.922913	14046.790039	3970.783691	22.924282
609.550171	983.024963	14451.833008	4123.243652	23.314749
609.888245	992.127075	14631.598633	4059.529053	22.489155
610.226318	987.576050	14956.998047	4259.774902	23.424009
610.564392	1021.708862	14897.834961	4250.672852	23.269924
610.902344	1021.708862	14622.497070	4054.978027	22.302156
611.240295	1049.015137	14636.149414	4130.070313	22.676270
611.578247	1064.943726	14258.413086	4166.478516	23.508104
611.916138	1042.188477	13910.258789	4205.162598	24.580019
612.253845	1051.290649	13443.777344	4025.396240	23.999264
612.591675	1058.117188	13416.470703	3998.090088	23.789358
612.929382	957.994263	12934.060547	3836.528076	24.035719
613.267090	1046.739624	12488.058594	3850.181152	24.502781
613.604736	1028.535400	12372.006836	3709.098877	23.630892
613.942261	1017.157776	12112.597656	3583.945313	23.133717
614.279785	1039.912964	11860.014648	3604.425049	23.701368
614.617310	1005.780212	12042.055664	3456.516113	22.206186
614.954712	953.443237	11885.044922	3406.454590	22.439632
615.292175	1026.259888	11737.136719	3458.791504	22.710855
615.629517	948.892151	11630.186523	3517.955078	24.051983
615.966797	1001.229126	11527.788086	3376.872803	22.568092
616.304138	1028.535400	11693.901367	3504.302002	23.213142
616.641296	987.576050	11602.880859	3438.312012	23.086815
616.978516	996.678101	11516.411133	3451.965088	23.339823
617.315552	1005.780212	11798.575195	3508.853027	23.192072
617.652771	1062.668213	11573.298828	3388.250488	22.126001
617.989685	921.585938	11616.534180	3415.556641	23.319147
618.326721	1021.708862	11552.819336	3288.127441	21.521173
618.663696	987.576050	11834.983398	3326.811523	21.564926
619.000549	1060.392700	11637.013672	3297.229736	21.148880
619.337463	1012.606750	11807.677734	3536.159424	23.376898
619.674194	946.616638	11466.349609	3442.863037	23.729179
620.010986	1001.229126	11600.605469	3340.464600	22.069557
620.347778	957.994263	11459.522461	3329.086914	22.578550
620.684387	1071.770264	11509.583984	3363.219727	21.953348
621.020996	1096.801025	11350.297852	3354.117676	22.015091
621.357605	1037.637451	11329.818359	3265.372314	21.644926
621.694214	1062.668213	11236.521484	3276.750000	21.762470
622.030579	1074.045776	10881.540039	3226.688477	21.948956
622.367065	998.953613	11088.613281	3299.505127	22.801081
622.703430	912.483826	11081.786133	3331.362549	23.786081
623.039795	1064.943726	11034.000000	3222.137451	21.638897
623.376160	1035.361938	10913.397461	3272.198975	22.644552
623.712402	1042.188477	11024.898438	3258.545898	22.201962
624.048645	1003.504700	11022.623047	3319.984863	23.120600
624.384766	939.790100	10933.877930	3185.729004	22.472675
624.720886	1014.882263	11220.592773	3153.871826	20.958750
625.057007	1046.739624	11140.950195	3133.392090	20.671772
625.392944	983.024963	11095.439453	3208.484375	22.007202
625.729004	1039.912964	11034.000000	3213.035400	21.744083
626.064941	1033.086426	11325.266602	3372.321777	22.728279
626.400818	1037.637451	11498.207031	3231.239502	20.970198
626.736633	994.402588	11855.462891	3274.474365	20.993086
627.072449	1005.780212	11951.035156	3504.302002	22.827442
627.408264	1026.259888	12112.597656	3388.250488	21.305418
627.743896	987.576050	12048.882813	3354.117676	21.394773
628.079590	973.922913	12069.362305	3451.965088	22.333881
628.415161	957.994263	12035.229492	3288.127441	21.035332
628.750793	1012.606750	11803.125977	3347.291016	21.636440
629.086365	1049.015137	11607.431641	3324.535889	21.551725
629.421753	1055.841675	11475.451172	3169.800537	20.288275
629.757263	973.922913	11261.552734	3372.321777	23.313425
630.092651	1053.566162	10892.917969	3294.954102	22.779835
630.427917	1017.157776	10949.805664	3292.678711	22.909512
630.763184	1051.290649	10649.437500	3217.586426	22.569941
631.098511	1083.147949	10704.049805	3115.187988	21.121096
631.433716	1042.188477	10478.773438	3147.045166	22.305281
631.768799	978.473938	10617.580078	2967.279053	20.632671
632.103943	955.718750	10476.498047	3110.636963	22.633842
632.438965	1030.810913	10244.394531	3087.881836	22.326500
632.773987	1053.566162	10330.864258	2885.360352	19.744911
633.109070	1044.463989	10333.139648	3024.167236	21.313084
633.443848	969.371887	10146.546875	3019.616211	22.340693
633.778870	1058.117188	10203.435547	3033.269287	21.597412
634.113708	1058.117188	10194.333008	2935.421875	20.547945
634.448425	1039.912964	10264.874023	3144.769775	22.816975
634.783264	1001.229126	10155.649414	3033.269287	22.197367
635.117859	1021.708862	10110.138672	2969.554688	21.432150
635.452576	994.402588	10096.485352	2958.177002	21.575001
635.787170	962.545288	10130.618164	2944.523926	21.618267
636.121704	985.300537	9994.086914	2921.768799	21.495329
636.456177	1014.882263	9859.832031	2944.523926	21.816309
636.790588	1042.188477	9843.903320	2817.094727	20.165459
637.125122	1014.882263	9577.666992	2842.125488	21.339355
637.459412	1028.535400	9525.330078	2853.503174	21.478308
637.793762	985.300537	9320.533203	2828.472412	22.113024
638.128052	1008.055725	9450.238281	2846.676514	21.778975
638.462280	1071.770264	9445.686523	2903.564453	21.875000
638.796509	1064.943726	9313.707031	2835.298828	21.462067
639.130615	996.678101	9161.247070	2842.125488	22.603121
639.464722	1012.606750	9138.491211	2753.380127	21.422573
639.798767	1046.739624	9152.144531	2762.482178	21.167883
640.132751	1030.810913	8701.591797	2685.114502	21.566299
640.466736	1037.637451	8819.918945	2669.185791	20.964911
640.800598	953.443237	8667.458984	2625.950928	21.681414
641.134521	978.473938	8669.734375	2466.664551	19.349113
641.468262	1008.055725	8635.601563	2676.012451	21.867542
641.802063	1035.361938	8717.520508	2641.879639	20.912321
642.135803	1012.606750	8615.122070	2748.829102	22.837475
642.469421	1042.188477	8519.549805	2666.910400	21.728546
642.803101	1019.433350	8471.763672	2728.349365	22.931297
643.136658	971.647400	8444.458008	2580.440674	21.528624
643.470215	1035.361938	8376.192383	2573.614014	20.954742
643.803711	1026.259888	8540.029297	2623.675537	21.259844
644.137085	1046.739624	8387.569336	2607.746826	21.264725
644.470581	1058.117188	8403.498047	2559.960938	20.446098
644.803833	980.749451	8398.947266	2519.001465	20.736195
645.137207	957.994263	8237.385742	2544.032227	21.788057
645.470459	1005.780212	8335.232422	2662.359375	22.601677
645.803589	983.024963	8173.670898	2512.175049	21.265825
646.136780	928.412476	8376.192383	2616.848877	22.670332
646.469849	971.647400	8373.916992	2503.072998	20.688595
646.802979	998.953613	8376.192383	2573.614014	21.344849
647.135986	980.749451	8553.682617	2707.869873	22.806492
647.468994	1083.147949	8446.733398	2564.511963	20.117428
647.801941	1037.637451	8362.539063	2598.644775	21.310966
648.134766	1023.984375	8357.988281	2539.481201	20.663977
648.467651	1042.188477	8403.498047	2582.716064	20.927359
648.800354	964.820801	8298.824219	2548.583252	21.594788
649.133179	1021.708862	8344.334961	2641.879639	22.125544
649.465881	1035.361938	8348.885742	2584.991699	21.188551
649.798462	1012.606750	8442.182617	2519.001465	20.275650
650.131104	1083.147949	8251.038086	2534.930176	20.253969
650.463623	1069.494751	8323.855469	2646.430664	21.737764
650.796143	1092.250000	8467.212891	2616.848877	20.672630
651.128662	1033.086426	8385.293945	2632.777588	21.757971
651.461060	1042.188477	8287.446289	2580.440674	21.231159
651.793396	1003.504700	8301.099609	2471.215576	20.112257
652.125732	976.198425	8371.640625	2569.062988	21.538462
652.458008	1033.086426	8428.529297	2669.185791	22.123075
652.790222	1019.433350	8419.426758	2630.501953	21.771217
653.122437	1030.810913	8269.242188	2637.328613	22.194281
653.454529	1051.290649	8401.222656	2441.633789	18.916409
653.786621	1012.606750	8291.998047	2537.205811	20.944048
654.118713	951.167725	8191.875000	2582.716064	22.532997
654.450623	983.024963	8198.701172	2559.960938	21.854307
654.782654	1010.331238	8139.538086	2464.388916	20.395782
655.114502	1012.606750	8100.854004	2475.766602	20.642056
655.446350	1012.606750	7843.720215	2544.032227	22.418388
655.778198	1023.984375	7959.771973	2489.419678	21.128607
656.109863	1101.352051	8071.272461	2550.858887	20.796606
656.441650	1051.290649	8034.863770	2541.756836	21.342459
656.773254	1092.250000	7814.138672	2639.604248	23.019634
657.104919	1012.606750	8175.946289	2523.552490	21.092758
657.436462	1046.739624	8105.405273	2464.388916	20.083815
657.767944	998.953613	7989.353516	2521.277100	21.777346
658.099548	1023.984375	8228.283203	2557.685303	21.288691
658.430908	1064.943726	8326.130859	2641.879639	21.717329
658.762268	1046.739624	8417.151367	2525.828125	20.067923
659.093628	1012.606750	8549.131836	2660.083740	21.859903
659.424927	907.932800	8892.735352	2716.971924	22.656027
659.756226	967.096313	9320.533203	2742.002686	21.247620
660.087341	1030.810913	9304.604492	2928.595215	22.937292
660.418518	1033.086426	9334.186523	2873.982666	22.176535
660.749573	1087.698975	9213.583984	2737.451416	20.302435
661.080627	992.127075	9229.512695	2807.992676	22.044197
661.411621	1044.463989	9020.164063	2739.727051	21.255350
661.742554	1005.780212	8890.459961	2814.819336	22.943724
662.073547	1035.361938	8540.029297	2757.931152	22.953304
662.404297	1051.290649	8542.304688	2721.522949	22.296478
662.735229	1051.290649	8230.558594	2696.492188	22.916006
663.065979	994.402588	8089.476563	2637.328613	23.155869
663.396667	1053.566162	7984.802734	2703.318604	23.801704
663.727417	1017.157776	7841.444824	2473.491211	21.340448
664.057922	978.473938	7643.474609	2553.134277	23.625811
664.388611	1035.361938	7557.004395	2448.460449	21.667831
664.719116	1017.157776	7591.137207	2459.837891	21.945311
665.049622	1001.229126	7450.055176	2482.593262	22.971066
665.380005	1019.433350	7488.738770	2466.664551	22.370735
665.710388	1021.708862	7374.962891	2391.572266	21.561604
666.040771	1001.229126	7379.514160	2453.011475	22.761328
666.371033	1010.331238	7406.820313	2384.745850	21.487015
666.701294	1021.708862	7256.635742	2384.745850	21.861315
667.031555	1008.055725	7131.482422	2462.113525	23.745819
667.361633	1010.331238	7188.370117	2443.909424	23.204420
667.691772	1030.810913	7074.594238	2430.256104	23.155119
668.021790	1053.566162	7095.073730	2475.766602	23.540489
668.351807	1080.872437	7286.217773	2455.286865	22.148880
668.681763	1005.780212	7204.298828	2437.082764	23.091042
669.011719	1110.454102	7281.666504	2443.909424	21.607672
669.341614	1042.188477	7240.707031	2503.072998	23.568285
669.671387	1067.219238	7327.176758	2559.960938	23.845877
670.001221	1039.912964	7329.452637	2382.470215	21.345875
670.330933	1064.943726	7402.269043	2437.082764	21.651707
670.660583	971.647400	7361.309570	2453.011475	23.183762
670.990173	967.096313	7334.003418	2516.726074	24.338816
671.319763	985.300537	7190.645508	2505.348389	24.495785
671.649292	1089.974487	7238.431641	2480.317627	22.612879
671.978821	1008.055725	7042.736816	2430.256104	23.567118
672.308289	932.963501	6976.746582	2387.021240	24.058735
672.637695	1055.841675	6812.909180	2382.470215	23.043478
672.966980	1019.433350	7004.053223	2339.235352	22.053230
673.296326	1030.810913	6858.419922	2270.969727	21.280748
673.625610	996.678101	6885.726074	2384.745850	23.570326
673.954773	983.024963	6849.317383	2402.949951	24.204811
674.283936	998.953613	6969.920410	2323.306641	22.179876
674.613037	1030.810913	6883.450195	2346.062012	22.472786
674.942078	989.851563	6960.818359	2389.296875	23.437500
675.271118	1005.780212	6685.479980	2443.909424	25.320515
675.600098	964.820801	6705.959961	2332.408936	23.820850
675.928955	1028.535400	6726.439453	2375.643799	23.642174
676.257813	951.167725	6756.021484	2341.510986	23.951393
676.586670	969.371887	6680.929199	2339.235352	23.984064
676.915466	962.545288	6803.807129	2332.408936	23.451502
677.244141	985.300537	6756.021484	2468.940186	25.709782
677.572876	1085.423462	6815.184570	2327.857666	21.683874
677.901489	1017.157776	6665.000488	2348.337402	23.569702
678.230042	1005.780212	6717.337402	2418.878662	24.741035
678.558594	1012.606750	6603.561523	2314.204590	23.280424
678.887085	1060.392700	6703.684082	2441.633789	24.475805
679.215515	1019.433350	6906.205566	2421.154053	23.811361
679.543945	1124.107300	6944.889648	2405.225586	22.009384
679.872253	1010.331238	6837.939941	2493.970703	25.458801
680.200562	1014.882263	7017.706055	2437.082764	23.692190
680.528809	951.167725	7170.166016	2516.726074	25.173803
680.856995	1005.780212	7265.737793	2575.889648	25.081789
681.185120	1064.943726	7393.166992	2610.022461	24.415680
681.513306	1076.321289	7500.116699	2628.226563	24.158697
681.841309	1049.015137	7208.850098	2632.777588	25.711119
682.169373	1042.188477	7283.941895	2498.521729	23.332117
682.497314	1108.178589	7195.196777	2625.950928	24.934580
682.825134	971.647400	7390.891602	2575.889648	24.991138
683.153076	1023.984375	6965.369141	2546.307861	25.622368
683.480896	967.096313	7042.736816	2498.521729	25.205990
683.808655	994.402588	6922.134277	2500.797363	25.412668
684.136414	985.300537	6851.593262	2512.175049	26.027927
684.464050	1028.535400	6701.408691	2443.909424	24.949862
684.791626	992.127075	6660.449219	2389.296875	24.648737
685.119263	946.616638	6430.621582	2361.990479	25.809128
685.446838	1026.259888	6533.020020	2423.429688	25.371902
685.774292	994.402588	6448.826172	2311.929199	24.155193
686.101685	1014.882263	6346.427734	2387.021240	25.736233
686.429077	998.953613	6407.866699	2391.572266	25.746737
686.756348	978.473938	6168.937012	2389.296875	27.181063
687.083679	1021.708862	6335.049805	2284.622803	23.768736
687.410950	994.402588	6314.570313	2314.204590	24.807526
687.738159	967.096313	6410.142090	2366.541748	25.710705
688.065308	1017.157776	6298.641602	2389.296875	25.980183
688.392395	998.953613	6432.897461	2500.797363	27.638191
688.719421	944.341125	6453.376953	2325.582275	25.072287
689.046448	1001.229126	6278.162109	2548.583252	29.322981
689.373413	983.024963	6412.417480	2439.358398	26.823139
689.700317	989.851563	6319.121094	2398.398926	26.430403
690.027100	1046.739624	6259.957520	2402.949951	26.014841
690.353943	1028.535400	6080.191406	2361.990479	26.396395
690.680725	1067.219238	6178.039063	2332.408936	24.755123
691.007446	996.678101	6030.129883	2275.520752	25.406872
691.334106	960.269775	5961.864258	2296.000488	26.706097
691.660645	1005.780212	5832.159668	2202.704102	24.799622
691.987244	1146.862427	5898.149902	2266.418701	23.563219
692.313721	994.402588	5713.832520	2255.041016	26.711668
692.640259	1030.810913	5563.648438	2255.041016	27.008030
692.966675	1099.076538	5677.424316	2264.143311	25.447319
693.293030	967.096313	5513.586914	2120.785400	25.375376
693.619324	978.473938	5625.087402	2189.051025	26.052893
693.945618	1010.331238	5620.536621	2166.295898	25.074036
694.271851	978.473938	5586.403809	2248.214600	27.555557
694.598083	1003.504700	5497.658203	2266.418701	28.101269
694.924194	1003.504700	5372.504395	2164.020264	26.562504
695.250244	1033.086426	5304.238770	2177.673340	26.798082
695.576294	1049.015137	5356.576172	2232.285889	27.469622
695.902283	1083.147949	5688.802246	2143.540527	23.023712
696.228210	1010.331238	5372.504395	2166.295898	26.499741
696.554138	1026.259888	5556.821777	2164.020264	25.113007
696.879944	1049.015137	5627.362793	2275.520752	26.789263
697.205750	989.851563	5629.638672	2286.898438	27.954880
697.531433	976.198425	5729.761230	2193.602051	25.610338
697.857178	996.678101	5843.537598	2177.673340	24.366196
698.182739	1005.780212	6009.650391	2321.031250	26.284674
698.508423	992.127075	6041.507813	2361.990479	27.129333
698.833984	1012.606750	6410.142090	2439.358398	26.433393
699.159485	1014.882263	6635.418457	2448.460449	25.506075
699.484924	1028.535400	6787.878418	2541.756836	26.274204
699.810303	1012.606750	6942.613770	2519.001465	25.402918
700.135681	989.851563	6958.542480	2541.756836	26.000765
700.460999	1019.433350	6963.093750	2459.837891	24.234303
700.786255	1030.810913	6610.387695	2594.093750	28.017946
701.111450	1001.229126	6451.101563	2453.011475	26.638832
701.436646	1035.361938	6232.651367	2402.949951	26.313484
701.761719	1014.882263	6109.773438	2286.898438	24.966503
702.086792	989.851563	5959.588867	2296.000488	26.282051
702.411865	1105.903076	5809.404785	2236.836914	24.044506
702.736816	1053.566162	5524.964355	2234.561523	26.412214
703.061646	978.473938	5356.576172	2204.979736	28.014557
703.386536	967.096313	5292.861328	2168.571289	27.774855
703.711365	1067.219238	5101.717773	2011.560425	23.406656
704.036194	1003.504700	5158.605469	2047.968750	25.136915
704.360901	1060.392700	5110.819824	2052.519775	24.494381
704.685547	989.851563	4933.329102	2032.040039	26.428158
705.010132	1014.882263	4967.461914	2070.723877	26.712721
705.334717	1030.810913	4815.001953	2082.101563	27.781120
705.659302	960.269775	4883.267578	1959.223389	25.464037
705.983765	1060.392700	4867.338867	2002.458252	24.745964
706.308228	1026.259888	4837.757324	1979.703125	25.014925
706.632568	1019.433350	4867.338867	2072.999512	27.380251
706.956909	1021.708862	4746.736328	1950.121338	24.923641
707.281189	978.473938	4778.593750	2129.887451	30.299402
707.605408	1035.361938	4737.634277	2052.519775	27.473879
707.929626	1033.086426	4780.869141	2050.244141	27.140253
708.253784	1003.504700	4792.246582	2077.550537	28.348352
708.577820	1058.117188	4835.481934	1963.774414	23.975901
708.901855	1058.117188	4830.930664	2079.825928	27.080818
709.225830	1033.086426	4871.890137	2018.386963	25.666864
709.549805	1053.566162	4851.410156	2027.489014	25.644098
709.873718	994.402588	4885.542969	1988.805176	25.555557
710.197510	930.687988	4981.115234	2025.213501	27.022470
710.521362	996.678101	4924.227051	2104.856689	28.215527
710.845093	987.576050	4851.410156	2116.234375	29.210838
711.168701	996.678101	5058.482910	2007.009399	24.873951
711.492432	1026.259888	5083.513672	2068.448486	25.687044
711.816040	1030.810913	5008.421387	2084.376953	26.487411
712.139587	1055.841675	5311.065430	2134.438477	25.347593
712.463074	1003.504700	5235.973145	2082.101563	25.483875
712.786499	1003.504700	5270.105957	2161.744873	27.146673
713.109924	980.749451	5138.125977	2198.153076	29.282976
713.433350	1030.810913	5017.523438	2157.193604	28.253422
713.756592	989.851563	4906.022949	2084.376953	27.948864
714.079834	1085.423462	4919.675781	2113.958740	26.824923
714.403015	1035.361938	4965.186523	2045.693237	25.709322
714.726196	1019.433350	4915.125000	2036.591064	26.109810
715.049255	969.371887	4924.227051	2077.550537	28.020716
715.372375	1049.015137	4883.267578	2054.795166	26.231451
715.695435	1021.708862	4801.349121	1986.529663	25.526791
716.018311	1001.229126	4906.022949	1954.672363	24.417248
716.341248	1014.882263	4801.349121	1954.672363	24.819710
716.664063	957.994263	4749.011719	2063.897461	29.171671
716.987000	1026.259888	4935.604492	1977.427612	24.330618
717.309692	983.024963	4774.042480	1938.743774	25.210087
717.632385	1001.229126	4730.807617	1970.601074	25.991461
717.955078	996.678101	4667.093262	2004.733887	27.464354
718.277649	1117.280762	4637.511230	1854.549438	20.943762
718.600220	1044.463989	4450.918457	1952.396851	26.653309
718.922791	951.167725	4485.051270	1863.651489	25.820992
719.245300	1076.321289	4455.469727	1900.059814	24.377104
719.567688	951.167725	4339.417969	1786.283813	24.647415
719.890015	983.024963	4305.285156	1856.824951	26.301371
720.212341	1062.668213	4255.224121	1836.345337	24.233784
720.534607	1103.627563	4141.447754	1845.447388	24.419477
720.856873	987.576050	4264.326172	1815.865601	25.277777
721.179016	1010.331238	3998.090088	1770.355225	25.437929
721.501160	985.300537	3973.059326	1768.079712	26.199543
721.823242	998.953613	3945.753174	1740.773438	25.173746
722.145264	1035.361938	3941.202148	1747.599976	24.510571
722.467224	969.371887	4114.141602	1727.120239	24.095510
722.789185	996.678101	4059.529053	1777.181763	25.482912
723.111023	946.616638	3959.406250	1802.212524	28.398794
723.432861	1060.392700	3925.273438	1729.395752	23.351864
723.754578	1003.504700	3857.007813	1768.079712	26.794258
724.076294	1003.504700	3834.252441	1749.875488	26.366558
724.397949	973.922913	3877.487549	1720.293701	25.705326
724.719666	983.024963	3793.293213	1729.395752	26.558702
725.041260	1017.157776	3882.038574	1688.436401	23.431293
725.362732	1053.566162	3900.242676	1692.987427	22.462029
725.684265	998.953613	3918.446777	1772.630737	26.500391
726.005676	1035.361938	3866.109863	1777.181763	26.205788
726.327087	967.096313	4016.294189	1795.385864	27.164179
726.648438	1017.157776	3938.926514	1708.916138	23.676014
726.969666	980.749451	4089.110840	1699.814087	23.133238
727.290894	980.749451	3925.273438	1722.569214	25.193199
727.612061	1074.045776	3918.446777	1722.569214	22.800001
727.933228	1028.535400	4048.151611	1711.191650	22.607384
728.254395	1019.433350	4171.029785	1829.518677	25.703968
728.575378	955.718750	4109.590332	1884.131226	29.437231
728.896301	1060.392700	4091.386475	1799.937012	24.399401
729.217285	1014.882263	4082.284424	1813.590088	26.038576
729.538147	998.953613	4175.580566	1772.630737	24.355303
729.858948	1071.770264	4141.447754	1738.497925	21.719795
730.179810	1058.117188	4111.866211	1802.212524	24.366617
730.500549	1021.708862	4168.753906	1797.661377	24.656544
730.821228	969.371887	4125.519043	1702.089600	23.215574
731.141846	1058.117188	4050.427002	1804.488037	24.942966
731.462402	937.514587	4175.580566	1758.977539	25.368938
731.782898	1042.188477	4193.784668	1829.518677	24.981951
732.103455	1058.117188	4200.611328	1786.283813	23.171614
732.423889	1074.045776	4259.774902	1861.375977	24.714287
732.744263	992.127075	4312.111816	1861.375977	26.182316
733.064636	960.269775	4177.855957	1900.059814	29.207922
733.384888	987.576050	4239.295410	1829.518677	25.892231
733.705200	980.749451	4321.213867	1815.865601	25.000002
734.025330	1078.596802	4241.570801	1745.324463	21.079138
734.345520	1105.903076	4216.540039	1822.692139	23.043159
734.665527	1039.912964	4252.948242	1786.283813	23.229464
734.985596	1021.708862	4111.866211	1718.018188	22.533136
735.305542	1076.321289	4086.835449	1795.385864	23.885109
735.625549	1035.361938	3968.508301	1774.906250	25.213345
735.945435	1026.259888	3907.069336	1838.620850	28.199051
736.265259	1153.689087	3948.028564	1756.702026	21.579803
736.585083	1017.157776	3973.059326	1852.273926	28.252502
736.904785	1069.494751	3761.435791	1813.590088	27.641592
737.224426	1105.903076	3829.701416	1713.467163	22.305767
737.544128	1039.912964	3759.160400	1758.977539	26.443512
737.863708	1005.780212	3868.385254	1799.937012	27.742451
738.183289	1035.361938	3706.823486	1692.987427	24.616693
738.502808	1012.606750	3897.967041	1786.283813	26.813881
738.822205	1017.157776	3772.813477	1749.875488	26.589596
739.141541	1010.331238	3811.497314	1768.079712	27.051180
739.460938	1033.086426	3902.518066	1663.405762	21.966696
739.780212	985.300537	4043.600586	1681.609863	22.767855
740.099426	992.127075	3970.783691	1799.937012	27.119940
740.418640	1017.157776	3952.579590	1818.141113	27.286821
740.737793	1003.504700	3927.548828	1831.794189	28.326845
741.056885	1003.504700	3838.803711	1784.008301	27.528088
741.375977	987.576050	3752.333740	1667.956787	24.609055
741.694946	1030.810913	3779.640137	1779.457275	27.235100
742.013855	1037.637451	3804.670898	1679.334351	23.190790
742.332703	1046.739624	3677.241699	1699.814087	24.826990
742.651550	957.994263	3618.078125	1697.538574	27.801540
742.970398	919.310425	3752.333740	1663.405762	26.265060
743.289124	1019.433350	3556.638916	1702.089600	26.905830
743.607788	957.994263	3704.547852	1772.630737	29.660315
743.926453	1026.259888	3479.271240	1663.405762	25.974030
744.245056	1049.015137	3699.996826	1672.507813	23.519312
744.563599	1026.259888	3536.159424	1688.436401	26.382591
744.882141	1033.086426	3486.097900	1720.293701	28.014841
745.200500	1023.984375	3486.097900	1622.446289	24.306837
745.518860	1069.494751	3426.934326	1679.334351	25.868729
745.837219	1019.433350	3565.741211	1572.384888	21.715816
746.155518	1010.331238	3436.036377	1661.130127	26.829268
746.473755	1008.055725	3395.077148	1658.854614	27.264057
746.791992	1028.535400	3476.995850	1674.783325	26.394053
747.110107	1049.015137	3424.658691	1667.956787	26.053640
747.428162	1005.780212	3413.281250	1599.691162	24.669188
747.746216	964.820801	3463.342773	1658.854614	27.777775
748.064148	951.167725	3267.647949	1574.660400	26.915520
748.382080	978.473938	3486.097900	1663.405762	27.313976
748.700073	992.127075	3340.464600	1622.446289	26.841084
749.017822	976.198425	3429.209961	1704.365112	29.684601
749.335632	987.576050	3306.331787	1640.650513	28.164865
749.653320	987.576050	3447.414063	1667.956787	27.659576
749.971008	1017.157776	3465.618164	1654.303589	26.022305
750.288696	985.300537	3467.893799	1672.507813	27.681026
750.606262	1019.433350	3317.709229	1642.926025	27.128714
750.923828	983.024963	3335.913574	1640.650513	27.949709
751.241272	1039.912964	3431.485352	1758.977539	30.066605
751.558716	1005.780212	3379.148438	1722.569214	30.201340
751.876038	1005.780212	3249.443604	1740.773438	32.758625
752.193481	1023.984375	3258.545898	1672.507813	29.022402
752.510681	1019.433350	3247.168213	1667.956787	29.111338
752.827942	1055.841675	3181.177979	1604.242188	25.802998
753.145081	983.024963	3445.138428	1656.579102	27.356747
753.462219	1012.606750	3310.882813	1620.170776	26.435640
753.779297	996.678101	3360.944336	1572.384888	24.350338
754.096375	1033.086426	3397.352539	1549.629639	21.847931
754.413330	1053.566162	3267.647949	1697.538574	29.085304
754.730286	1026.259888	3292.678711	1611.068726	25.803209
755.047119	1037.637451	3222.137451	1697.538574	30.208338
755.363892	971.647400	3345.015625	1604.242188	26.653883
755.680725	1074.045776	3324.535889	1665.681274	26.289183
755.997498	1101.352051	3331.362549	1695.262939	26.632650
756.314148	1017.157776	3233.515137	1558.731689	24.435314
756.630737	1058.117188	3244.892578	1574.660400	23.621229
756.947327	980.749451	3197.106689	1640.650513	29.774130
757.263855	953.443237	3190.280273	1574.660400	27.772125
757.580261	1060.392700	3315.433838	1638.375000	25.630678
757.896729	1028.535400	3226.688477	1604.242188	26.190477
758.213074	1037.637451	3390.525879	1592.864502	23.597679
758.529419	1030.810913	3319.984863	1599.691162	24.850899
758.845642	994.402588	3304.056152	1551.905151	24.137930
759.161865	1003.504700	3306.331787	1624.721802	26.976280
759.478149	1089.974487	3356.393066	1631.548462	23.895586
759.794189	1039.912964	3370.046387	1608.793213	24.414064
760.110229	964.820801	3422.383301	1640.650513	27.500002
760.426270	992.127075	3397.352539	1722.569214	30.368965
760.742249	1067.219238	3319.984863	1745.324463	30.101011
761.058105	994.402588	3265.372314	1681.609863	30.260521
761.374023	1064.943726	3367.770752	1727.120239	28.754938
761.689819	1023.984375	3372.321777	1652.028076	26.744184
762.005554	1078.596802	3208.484375	1754.426514	31.730768
762.321289	1051.290649	3406.454590	1770.355225	30.531401
762.636902	1026.259888	3472.444824	1636.099487	24.930231
762.952515	1028.535400	3531.608398	1708.916138	27.181818
763.268127	980.749451	3527.057129	1649.752563	26.273460
763.583618	1035.361938	3563.465576	1795.385864	30.063007
763.899048	978.473938	4007.192139	1852.273926	28.850487
764.214478	1039.912964	4339.417969	1975.152100	28.344833
764.529785	973.922913	4603.378418	1968.325439	27.398119
764.845093	976.198425	4842.308105	2045.693237	27.663336
765.160400	1051.290649	4746.736328	2063.897461	27.401480
765.475586	1060.392700	4612.480469	2057.070801	28.058937
765.790771	1037.637451	4480.500488	1941.019287	26.239262
766.105835	985.300537	4211.988770	1943.294800	29.689707
766.420837	989.851563	4061.804688	1852.273926	28.074074
766.735840	1010.331238	3938.926514	1797.661377	26.884226
767.050842	1026.259888	3659.037354	1749.875488	27.484877
767.365662	1044.463989	3583.945313	1806.763550	30.017921
767.680542	917.034912	3577.118652	1670.232300	28.314800
767.995300	989.851563	3499.750977	1638.375000	25.838623
768.309998	1026.259888	3451.965088	1708.916138	28.142591
768.624817	1019.433350	3395.077148	1570.109375	23.180075
768.939392	985.300537	3390.525879	1613.344238	26.111637
769.254028	1035.361938	3137.943115	1663.405762	29.870136
769.568481	1019.433350	3301.780762	1752.151001	32.103687
769.882935	1067.219238	3185.729004	1558.731689	23.200859
770.197388	1053.566162	3199.382324	1608.793213	25.874866
770.511841	1074.045776	3194.831299	1495.017212	19.849787
770.826172	1039.912964	3137.943115	1513.221313	22.559652
771.140442	1005.780212	3140.218750	1588.313477	27.292109
771.454651	967.096313	3015.064941	1504.119263	26.222225
771.768860	1064.943726	3046.922363	1633.823975	28.702642
772.082886	1026.259888	2960.452637	1551.905151	27.176468
772.397034	980.749451	3078.779541	1581.486938	28.633408
772.711060	928.412476	2983.207764	1547.354126	30.121815
773.025024	987.576050	2928.595215	1601.966675	31.652990
773.338928	1035.361938	3090.157227	1506.394775	22.923588
773.652771	1023.984375	3017.340576	1533.701050	25.570778
773.966614	1076.321289	2894.462402	1504.119263	23.529415
774.280457	1044.463989	2771.584229	1417.649414	21.607380
774.594116	1014.882263	2969.554688	1545.078613	27.124563
774.907776	1026.259888	2873.982666	1524.598877	26.970442
775.221375	996.678101	2885.360352	1460.884399	24.578316
775.534912	985.300537	2810.268311	1533.701050	30.049873
775.848450	1058.117188	2762.482178	1567.833862	29.906544
776.161926	983.024963	2757.931152	1531.425537	30.897438
776.475342	1051.290649	2842.125488	1492.741699	24.650574
776.788696	1051.290649	2867.156250	1488.190552	24.060144
777.101990	1039.912964	2885.360352	1460.884399	22.811348
777.415283	971.647400	2696.492188	1513.221313	31.398415
777.728516	994.402588	2755.655762	1531.425537	30.490957
778.041626	1035.361938	2753.380127	1474.537476	25.562916
778.354736	1001.229126	2696.492188	1426.751587	25.100674
778.667725	1046.739624	2682.839111	1438.129150	23.922110
778.980774	1019.433350	2646.430664	1429.027100	25.174826
779.293640	1023.984375	2732.900391	1447.231201	24.766977
779.606567	1005.780212	2671.461426	1488.190552	28.961746
779.919434	928.412476	2737.451416	1451.782227	28.930817
780.232239	1014.882263	2696.492188	1419.924927	24.086601
780.544983	1026.259888	2732.900391	1463.159912	25.600004
780.857666	1039.912964	2662.359375	1481.364014	27.208975
781.170227	1035.361938	2687.390137	1458.608887	25.619839
781.482849	980.749451	2614.573486	1435.853638	27.855154
781.795410	1039.912964	2719.247314	1499.568237	27.371279
782.107910	1071.770264	2691.941162	1483.639526	25.421347
782.420288	1067.219238	2703.318604	1451.782227	23.504868
782.732666	1019.433350	2757.931152	1433.578125	23.821991
783.044983	1044.463989	2548.583252	1301.597900	17.095314
783.357300	962.545288	2632.777588	1390.343262	25.613083
783.669495	980.749451	2653.257324	1406.271851	25.442177
783.981689	964.820801	2655.532715	1442.680176	28.263796
784.293762	1008.055725	2594.093750	1408.547363	25.251074
784.605835	1067.219238	2550.858887	1419.924927	23.773003
784.917908	944.341125	2484.868652	1378.965576	28.212702
785.229858	1076.321289	2534.930176	1458.608887	26.209055
785.541748	969.371887	2405.225586	1388.067749	29.160063
785.853577	1037.637451	2484.868652	1435.853638	27.515726
786.165405	1010.331238	2448.460449	1376.690063	25.474682
786.477173	1001.229126	2507.624023	1388.067749	25.679762
786.788879	1060.392700	2425.705078	1397.169800	24.666670
787.100525	1003.504700	2437.082764	1369.863525	25.555553
787.412109	1112.729614	2471.215576	1299.322388	13.735348
787.723694	1001.229126	2462.113525	1435.853638	29.750780
788.035156	1067.219238	2478.042236	1397.169800	23.387098
788.346558	1005.780212	2466.664551	1456.333252	30.841118
788.658081	1023.984375	2632.777588	1460.884399	27.157003
788.969360	1069.494751	2623.675537	1476.812988	26.207907
789.280640	1026.259888	2748.829102	1433.578125	23.645971
789.591919	1033.086426	2739.727051	1456.333252	24.799997
789.903076	1033.086426	2753.380127	1417.649414	22.354496
790.214172	1012.606750	2753.380127	1426.751587	23.790852
790.525269	1019.433350	2607.746826	1383.516602	22.922632
790.836365	948.892151	2607.746826	1360.761475	24.828535
791.147339	1067.219238	2534.930176	1433.578125	24.961243
791.458191	998.953613	2498.521729	1504.119263	33.687408
791.769104	1076.321289	2489.419678	1456.333252	26.892109
792.079895	1001.229126	2466.664551	1388.067749	26.397520
792.390686	1033.086426	2336.959961	1331.179688	22.862129
792.701416	1074.045776	2382.470215	1392.618774	24.347834
793.012085	1026.259888	2352.888428	1383.516602	26.929672
793.322693	1035.361938	2393.847900	1360.761475	23.953102
793.633240	1033.086426	2373.368164	1342.557251	23.089983
793.943787	1014.882263	2373.368164	1492.741699	35.175888
794.254272	1078.596802	2366.541748	1378.965576	23.321554
794.564636	1042.188477	2307.378174	1422.200562	30.035976
794.875000	1051.290649	2332.408936	1392.618774	26.642982
795.185303	1017.157776	2318.755615	1397.169800	29.195808
795.495544	983.024963	2389.296875	1283.393677	21.359219
795.805786	1001.229126	2332.408936	1306.148926	22.905981
796.115906	1053.566162	2393.847900	1415.373901	26.994902
796.426025	971.647400	2446.184814	1376.690063	27.469135
796.736023	955.718750	2393.847900	1454.057739	34.651894
797.045959	1003.504700	2478.042236	1367.588013	24.691355
797.355896	1037.637451	2455.286865	1479.088501	31.139648
797.665833	1028.535400	2498.521729	1376.690063	23.684212
797.975708	1039.912964	2441.633789	1433.578125	28.084419
798.285461	983.024963	2409.776611	1351.659302	25.837315
798.595154	978.473938	2321.031250	1413.098389	32.372879
798.904846	996.678101	2393.847900	1388.067749	28.013033
799.214478	983.024963	2446.184814	1429.027100	30.482119
799.524109	1001.229126	2309.653564	1360.761475	27.478266
799.833557	973.922913	2293.724854	1485.915039	38.793102
800.143005	1055.841675	2409.776611	1344.832764	21.344532
800.452393	1003.504700	2227.734863	1410.822876	33.271370
800.761780	1021.708862	2257.316650	1369.863525	28.176794
801.071106	1023.984375	2252.765625	1388.067749	29.629633
801.380371	1005.780212	2204.979736	1358.485962	29.411766
801.689575	1019.433350	2200.428711	1406.271851	32.755295
801.998718	1014.882263	2252.765625	1324.353149	25.000006
802.307800	1019.433350	2257.316650	1281.118164	21.139700
802.616882	1055.841675	2075.274902	1306.148926	24.553570
802.925903	960.269775	2293.724854	1349.383789	29.180887
803.234863	1055.841675	2204.979736	1363.036987	26.732672
803.543701	1005.780212	2173.122314	1324.353149	27.290453
803.852539	1035.361938	2161.744873	1319.802124	25.252529
804.161316	1049.015137	2152.642578	1317.526489	24.329891
804.470032	967.096313	2043.417725	1338.006226	34.460888
804.778809	989.851563	2175.397949	1256.087524	22.456816
805.087341	1069.494751	2179.948975	1319.802124	22.540989
805.395935	1087.698975	2145.816162	1338.006226	23.655910
805.704468	1019.433350	2150.367188	1374.414551	31.388327
806.012939	1035.361938	2241.387939	1403.996338	30.566040
806.321350	1064.943726	2309.653564	1335.730713	21.755030
806.629761	1055.841675	2216.357178	1294.771362	20.588238
806.938049	1028.535400	2225.459229	1340.281738	26.045630
807.246277	996.678101	2234.561523	1403.996338	32.904411
807.554504	1046.739624	2318.755615	1363.036987	24.865831
807.862671	1010.331238	2170.846924	1360.761475	30.196081
808.170715	1010.331238	2298.276123	1319.802124	24.028273
808.478821	1035.361938	2264.143311	1353.934937	25.925930
808.786804	1001.229126	2259.592041	1401.720825	31.826406
809.094727	980.749451	2193.602051	1301.597900	26.454037
809.402649	1001.229126	2202.704102	1365.312500	30.303034
809.710510	1039.912964	2068.448486	1319.802124	27.212397
810.018311	1055.841675	2198.153076	1331.179688	24.103586
810.326050	1030.810913	2077.550537	1299.322388	25.652174
810.633667	1021.708862	2079.825928	1378.965576	33.763439
810.941345	983.024963	2134.438477	1376.690063	34.189720
811.248901	957.994263	2164.020264	1262.914063	25.283020
811.556396	994.402588	2138.989502	1256.087524	22.862827
811.863892	1005.780212	2025.213501	1385.792114	37.276779
812.171326	1042.188477	2013.835938	1281.118164	24.590162
812.478699	980.749451	2020.662476	1269.740601	27.789932
812.786011	1003.504700	2000.182739	1306.148926	30.365295
813.093262	1046.739624	2045.693237	1290.220337	24.373575
813.400391	1003.504700	1984.254150	1360.761475	36.426914
813.707642	1001.229126	1995.631714	1292.495850	29.290625
814.014709	923.861450	1966.049927	1274.291626	33.624454
814.321716	1046.739624	2007.009399	1240.158813	20.142172
814.628723	1037.637451	2059.346436	1228.781250	18.708242
814.935669	1010.331238	1988.805176	1301.597900	29.767443
815.242554	1046.739624	1972.876587	1272.016113	24.324316
815.549438	1028.535400	1918.264038	1267.465088	26.854219
815.856201	1074.045776	2013.835938	1274.291626	21.307507
816.162964	1010.331238	2002.458252	1226.505737	21.788994
816.469604	1023.984375	1902.335449	1301.597900	31.606215
816.776184	969.371887	2029.764526	1324.353149	33.476398
817.082825	998.953613	2143.540527	1249.260864	21.868786
817.389343	1053.566162	2029.764526	1317.526489	27.039619
817.695801	1033.086426	2032.040039	1310.699951	27.790432
818.002197	987.576050	2072.999512	1333.455200	31.865826
818.308533	1062.668213	2047.968750	1306.148926	24.711315
818.614868	1010.331238	2027.489014	1317.526489	30.201338
818.921143	1010.331238	2088.927979	1360.761475	32.489460
819.227356	1023.984375	2009.284912	1299.322388	27.944571
819.533447	962.545288	2136.714111	1353.934937	33.333336
819.839539	1003.504700	2111.683350	1256.087524	22.792608
820.145569	989.851563	2211.806152	1394.894287	33.147118
820.451538	1096.801025	2282.347412	1397.169800	25.335894
820.757568	1033.086426	2525.828125	1363.036987	22.103661
821.063416	1012.606750	2559.960938	1451.782227	28.382349
821.369263	1021.708862	2685.114502	1460.884399	26.402191
821.675049	969.371887	2726.073975	1372.139038	22.927458
821.980713	983.024963	2899.013428	1561.007324	30.166275
822.286438	996.678101	3147.045166	1645.201538	30.158730
822.592102	1019.433350	3998.090088	1831.794189	27.272724
822.897583	1001.229126	5727.485840	2339.235352	28.310062
823.203125	948.892151	8037.139648	2976.381104	28.603531
823.508545	989.851563	9859.832031	3461.067139	27.860439
823.813965	1035.361938	10299.006836	3679.517090	28.543358
824.119263	994.402588	9279.574219	3417.832275	29.250204
824.424622	992.127075	8003.006836	2969.554688	28.205128
824.729858	994.402588	6696.857910	2635.052979	28.770948
825.035095	1030.810913	5934.558105	2482.593262	29.605572
825.340149	1010.331238	5281.483887	2314.204590	30.527431
825.645264	1042.188477	4799.073242	2109.407715	28.407026
825.950256	1019.433350	4325.765137	1984.254150	29.181004
826.255310	1030.810913	4004.916504	2007.009399	32.823265
826.560242	1044.463989	3913.895752	1679.334351	22.125299
826.865112	983.024963	3613.527100	1795.385864	30.882351
827.169922	1019.433350	3413.281250	1720.293701	29.277563
827.474670	1026.259888	3725.027588	1722.569214	25.801012
827.779419	1062.668213	4011.743164	1879.580200	27.700619
828.084045	1049.015137	4632.960449	2091.203613	29.079363
828.388672	1026.259888	4844.583984	2111.683350	28.426697
828.693176	1051.290649	4969.737305	2104.856689	26.887339
828.997681	939.790100	4291.632324	1950.121338	30.142565
829.302124	1067.219238	3982.161377	1856.824951	27.088213
829.606567	983.024963	3506.577637	1677.058838	27.502254
829.910828	1028.535400	3188.004639	1647.477051	28.661749
830.215149	1019.433350	3085.606201	1579.211426	27.092510
830.519348	1101.352051	2908.115479	1504.119263	22.292194
830.823547	967.096313	2650.981689	1542.803101	34.189190
831.127686	1010.331238	2541.756836	1435.853638	27.786032
831.431763	978.473938	2293.724854	1347.108276	28.027679
831.735779	1053.566162	2268.694336	1374.414551	26.404490
832.039734	1021.708862	2223.183838	1413.098389	32.575752
832.343628	1044.463989	2132.163086	1415.373901	34.100414
832.647461	969.371887	2173.122314	1276.567139	25.519844
832.951233	923.861450	2164.020264	1360.761475	35.229362
833.255127	1039.912964	2145.816162	1401.720825	32.716053
833.558777	1030.810913	2280.071777	1324.353149	23.497272
833.862366	1042.188477	2352.888428	1392.618774	26.736118
834.165955	1035.361938	2635.052979	1429.027100	24.608824
834.469482	996.678101	2962.728027	1586.037964	29.976851
834.773010	1026.259888	3233.515137	1706.640625	30.824739
835.076416	996.678101	3613.527100	1731.671387	28.086956
835.379822	1074.045776	3529.332764	1711.191650	25.949953
835.683105	1064.943726	3285.852051	1665.681274	27.049185
835.986389	1046.739624	2980.932129	1586.037964	27.882351
836.289612	1001.229126	2757.931152	1597.415649	33.937828
836.592773	964.820801	2710.145264	1474.537476	29.204695
836.895874	1042.188477	2516.726074	1440.404663	27.006174
837.198914	969.371887	2346.062012	1460.884399	35.702477
837.501892	1033.086426	2309.653564	1369.863525	26.381464
837.804871	1076.321289	2132.163086	1281.118164	19.396549
838.107666	1051.290649	2141.265137	1367.588013	29.018785
838.410583	1053.566162	1993.356201	1240.158813	19.854717
838.713379	973.922913	1920.539551	1199.199463	23.798077
839.016052	1039.912964	1877.304688	1219.679199	21.467400
839.318787	969.371887	1927.366089	1217.403687	25.890741
839.621338	1014.882263	1863.651489	1194.648438	21.179628
839.923889	978.473938	1745.324463	1290.220337	40.652824
840.226440	1010.331238	1788.559326	1215.128052	26.315783
840.528931	989.851563	1854.549438	1297.046875	35.526318
840.831299	1017.157776	1968.325439	1322.077637	32.057426
841.133606	1039.912964	2082.101563	1322.077637	27.074244
841.435913	1058.117188	2104.856689	1217.403687	15.217397
841.738220	1055.841675	2077.550537	1365.312500	30.289532
842.040405	1037.637451	1966.049927	1299.322388	28.186279
842.342529	1058.117188	1909.161987	1203.750488	17.112295
842.644592	998.953613	1806.763550	1244.709839	30.422531
842.946594	1014.882263	1809.039063	1201.474976	23.495701
843.248596	994.402588	1811.314575	1128.658325	16.434542
843.550598	973.922913	1818.141113	1299.322388	38.544476
843.852478	1069.494751	1738.497925	1265.189575	29.251703
844.154236	1039.912964	1681.609863	1208.301514	26.241135
844.455994	1012.606750	1704.365112	1231.056763	31.578947
844.757690	996.678101	1622.446289	1155.964600	25.454554
845.059326	1019.433350	1538.252075	1210.577026	36.842094
845.360962	1028.535400	1581.486938	1110.454102	14.814807
845.662476	998.953613	1663.405762	1094.525513	14.383564
845.963989	1080.872437	1492.741699	1165.066650	20.441975
846.265381	1049.015137	1472.261963	1140.035889	21.505360
846.566772	1005.780212	1460.884399	1194.648438	41.499996
846.868042	1033.086426	1572.384888	1169.617676	25.316454
847.169373	1051.290649	1526.874512	1124.107300	15.311001
847.470581	1014.882263	1572.384888	1208.301514	34.693874
847.771729	1049.015137	1538.252075	1112.729614	13.023235
848.072815	969.371887	1492.741699	1117.280762	28.260872
848.373901	1001.229126	1522.323364	1105.903076	20.087336
848.674866	1064.943726	1419.924927	1115.005249	14.102585
848.975891	998.953613	1488.190552	1101.352051	20.930235
849.276794	937.514587	1463.159912	1142.311401	38.961025
849.577637	1105.903076	1479.088501	1078.596802	-7.317080
849.878357	1008.055725	1481.364014	1108.178589	21.153837
850.179077	1001.229126	1442.680176	1126.382813	28.350525
850.479736	978.473938	1510.945801	1206.026001	42.735039
850.780396	978.473938	1472.261963	1137.760376	32.258060
851.080994	1046.739624	1426.751587	1115.005249	17.964073
851.381470	1005.780212	1422.200562	1171.893188	39.890697
851.681946	992.127075	1488.190552	1089.974487	19.724777
851.982361	1028.535400	1438.129150	1176.444214	36.111103
852.282715	1005.780212	1429.027100	1103.627563	23.118269
852.583008	998.953613	1520.047852	1133.209351	25.764194
852.883240	1037.637451	1515.496826	1053.566162	3.333347
853.183411	985.300537	1474.537476	1130.933838	29.767437
853.483521	1008.055725	1422.200562	1180.995239	41.758221
853.783630	985.300537	1360.761475	1124.107300	36.969696
854.083679	1033.086426	1360.761475	1108.178589	22.916656
854.383667	1069.494751	1504.119263	1103.627563	7.853403
854.683533	1028.535400	1449.506714	1105.903076	18.378372
854.983337	989.851563	1415.373901	1083.147949	21.925144
855.283203	985.300537	1397.169800	1160.515625	42.541435
855.582886	1001.229126	1419.924927	1171.893188	40.760872
855.882629	1028.535400	1392.618774	1112.729614	23.124981
856.182312	989.851563	1360.761475	1149.138062	42.944794
856.481873	964.820801	1317.526489	1117.280762	43.225830
856.781372	1021.708862	1363.036987	1167.342163	42.666656
857.080872	1005.780212	1429.027100	1055.841675	11.827957
857.380310	1060.392700	1449.506714	1046.739624	-3.508760
857.679688	987.576050	1397.169800	1121.831787	32.777779
857.979004	1039.912964	1426.751587	1133.209351	24.117651
858.278259	1023.984375	1388.067749	1108.178589	23.124981
858.577454	1055.841675	1472.261963	1067.219238	2.732231
858.876648	973.922913	1431.302612	1053.566162	17.412939
859.175720	1099.076538	1369.863525	1185.546387	31.932793
859.474792	1030.810913	1474.537476	1074.045776	9.743583
859.773743	1001.229126	1442.680176	1169.617676	38.144333
860.072693	1030.810913	1388.067749	1115.005249	23.566893
860.371521	935.239075	1438.129150	1174.168701	47.511303
860.670349	1053.566162	1449.506714	1119.556274	16.666672
860.969116	1058.117188	1415.373901	1101.352051	12.101904
861.267883	1033.086426	1429.027100	1030.810913	-0.574710
861.566589	1014.882263	1403.996338	1108.178589	23.976601
861.865112	1046.739624	1442.680176	1089.974487	10.919534
862.163635	1008.055725	1358.485962	1046.739624	11.038973
862.462158	1046.739624	1401.720825	1151.413574	29.487181
862.760620	1023.984375	1349.383789	1053.566162	9.090916
863.059021	1010.331238	1378.965576	1087.698975	20.987663
863.357361	996.678101	1422.200562	1169.617676	40.641705
863.655640	1076.321289	1440.404663	1087.698975	3.125022
863.953857	1005.780212	1367.588013	1076.321289	19.496838
864.251953	987.576050	1397.169800	1140.035889	37.222210
864.550110	1135.484863	1401.720825	1142.311401	2.564093
864.848206	1069.494751	1440.404663	1060.392700	-2.453979
865.146179	989.851563	1390.343262	1194.648438	51.136360
865.444092	1030.810913	1385.792114	1080.872437	14.102585
865.741943	1042.188477	1442.680176	1110.454102	17.045454
866.039795	998.953613	1433.578125	1042.188477	9.947636
866.337646	1046.739624	1390.343262	1130.933838	24.503296
866.635376	985.300537	1429.027100	1165.066650	40.512814
866.933044	1094.525513	1413.098389	1017.157776	-24.285727
867.230652	1046.739624	1456.333252	1099.076538	12.777765
867.528198	1033.086426	1390.343262	1101.352051	19.108276
867.825745	960.269775	1474.537476	1069.494751	21.238934
868.123230	980.749451	1378.965576	1108.178589	31.999994
868.420593	1053.566162	1419.924927	1183.270874	35.403744
868.717896	1017.157776	1376.690063	1096.801025	22.151905
869.015198	1019.433350	1319.802124	1062.668213	14.393928
869.312439	1014.882263	1413.098389	1069.494751	13.714283
869.609619	1037.637451	1281.118164	1055.841675	7.476659
869.906738	985.300537	1456.333252	1103.627563	25.120766
870.203796	939.790100	1349.383789	1080.872437	34.444462
870.500854	987.576050	1406.271851	1126.382813	33.152176
870.797791	1058.117188	1363.036987	1162.791138	34.328354
871.094666	996.678101	1415.373901	1176.444214	42.934776
871.391602	1008.055725	1340.281738	1076.321289	20.547928
871.688293	1042.188477	1449.506714	1160.515625	29.050295
871.985107	992.127075	1360.761475	1094.525513	27.777777
872.281738	1001.229126	1429.027100	1101.352051	23.404255
872.578369	1042.188477	1376.690063	1187.821899	43.537437
872.874939	1017.157776	1356.210449	1121.831787	30.872492
873.171509	1030.810913	1394.894287	1171.893188	38.749992
873.467957	1023.984375	1429.027100	1042.188477	4.494366
873.764343	944.341125	1381.241089	1087.698975	32.812511
874.060669	1019.433350	1385.792114	1117.280762	26.708086
874.356995	1008.055725	1369.863525	1089.974487	22.641514
874.653198	1053.566162	1358.485962	1053.566162	0.000000
874.949463	1005.780212	1481.364014	1092.250000	18.181820
875.245544	1055.841675	1424.476074	1085.423462	8.024695
875.541626	1001.229126	1401.720825	1133.209351	32.954548
875.837646	1055.841675	1401.720825	1126.382813	20.394735
876.133606	1021.708862	1401.720825	1101.352051	20.958075
876.429565	1019.433350	1401.720825	1115.005249	25.000008
876.725403	1069.494751	1401.720825	1265.189575	58.904114
877.021179	1046.739624	1369.863525	1258.363037	65.492958
877.316956	1030.810913	1390.343262	1128.658325	27.215191
877.612610	1062.668213	1381.241089	1169.617676	33.571426
877.908203	1108.178589	1363.036987	1103.627563	-1.785707
878.203857	1014.882263	1374.414551	1169.617676	43.037975
878.499390	1005.780212	1417.649414	1110.454102	25.414352
878.794800	1003.504700	1401.720825	1117.280762	28.571436
879.090271	1014.882263	1390.343262	1064.943726	13.333332
879.385559	1017.157776	1474.537476	1171.893188	33.830845
879.680847	923.861450	1422.200562	1146.862427	44.748840
879.976196	1035.361938	1451.782227	1171.893188	32.786888
880.271301	1001.229126	1520.047852	1099.076538	18.859653
880.566467	1017.157776	1572.384888	1149.138062	23.770504
880.861572	1046.739624	1658.854614	1237.883301	31.226759
881.156555	1028.535400	1802.212524	1212.852539	23.823523
881.451477	1062.668213	2072.999512	1331.179688	26.576576
881.746460	1030.810913	2596.369141	1388.067749	22.819773
882.041321	998.953613	3365.495361	1633.823975	26.826923
882.336121	1010.331238	4086.835449	1913.713013	29.363905
882.630798	971.647400	4460.020996	2016.111450	29.941292
882.925537	1030.810913	4496.429199	1972.876587	27.183193
883.220215	985.300537	4305.285156	1906.886475	27.758741
883.514771	1026.259888	3970.783691	1802.212524	26.352398
883.809326	1005.780212	3718.200928	1793.110352	29.026846
884.103760	1021.708862	3324.535889	1722.569214	30.434778
884.398132	1037.637451	3149.320801	1613.344238	27.262932
884.692505	1087.698975	2987.758789	1597.415649	26.826349
884.986816	983.024963	2842.125488	1497.292725	27.662180
885.281067	967.096313	2676.012451	1488.190552	30.492674
885.575256	978.473938	2421.154053	1360.761475	26.498426
885.869385	1060.392700	2350.613037	1367.588013	23.809523
886.163452	1058.117188	2198.153076	1326.628662	23.552896
886.457458	1021.708862	1977.427612	1274.291626	26.428566
886.751465	994.402588	1772.630737	1274.291626	35.964909
887.045410	1062.668213	1706.640625	1244.709839	28.268545
887.339233	1110.454102	1756.702026	1210.577026	15.492959
887.632996	1071.770264	1656.579102	1165.066650	15.953314
887.926758	1037.637451	1601.966675	1208.301514	30.241932
888.220398	1026.259888	1608.793213	1192.372925	28.515629
888.514099	1067.219238	1520.047852	1076.321289	2.010043
888.807678	1099.076538	1526.874512	1178.719727	18.617010
889.101196	987.576050	1535.976563	1180.995239	35.269695
889.394653	1012.606750	1413.098389	1162.791138	37.500004
889.688049	1003.504700	1510.945801	1124.107300	23.766817
889.981384	1021.708862	1442.680176	1128.658325	25.405403
890.274719	996.678101	1460.884399	1215.128052	47.058807
890.567932	1014.882263	1385.792114	1083.147949	18.404926
>>>>>End Processed Spectral Data<<<<<
