Jaz Data File
++++++++++++++++++++++++++++++++++++
Date: Wed Feb 07 06:51:58 2024
User: jaz
Dark Spectrum Present: Yes
Reference Spectrum Present: Yes
Processed Spectrum Present: Yes
Spectrometers: JAZA3692
Integration Time (usec): 42900 (JAZA3692)
Spectra Averaged: 1 (JAZA3692)
Boxcar Smoothing: 0 (JAZA3692)
Correct for Electrical Dark: No (JAZA3692)
Strobe/Lamp Enabled: Yes (JAZA3692)
Correct for Detector Non-linearity: No (JAZA3692)
Correct for Stray Light: No (JAZA3692)
Number of Pixels in Processed Spectrum: 2048
>>>>>Begin Processed Spectral Data<<<<<
W	D	R	S	P
190.244385	0.000000	0.000000	0.000000	0.000000
190.627136	0.000000	0.000000	0.000000	0.000000
191.009842	907.932800	948.892151	987.576050	194.444611
191.392532	985.300537	1028.535400	876.075500	-252.631851
191.775177	917.034912	967.096313	969.371887	104.545563
192.157791	989.851563	903.381775	1042.188477	-60.526245
192.540390	992.127075	917.034912	910.208313	109.090958
192.922943	905.657288	1001.229126	921.585938	16.666677
193.305481	1003.504700	1035.361938	987.576050	-50.000095
193.687958	1010.331238	1023.984375	1003.504700	-49.999775
194.070419	948.892151	1019.433350	983.024963	48.387062
194.452866	1064.943726	928.412476	930.687988	98.333336
194.835251	1030.810913	1012.606750	953.443237	424.999908
195.217621	1008.055725	976.198425	960.269775	150.000000
195.599960	1039.912964	1003.504700	937.514587	281.250366
195.982254	1080.872437	976.198425	932.963501	141.304352
196.364517	1033.086426	971.647400	976.198425	92.592613
196.746750	962.545288	1003.504700	973.922913	27.777803
197.128952	1014.882263	994.402588	996.678101	88.888924
197.511139	1067.219238	1001.229126	926.136963	213.793045
197.893280	992.127075	1010.331238	996.678101	24.999916
198.275391	998.953613	935.239075	953.443237	71.428558
198.657471	1001.229126	1003.504700	1019.433350	799.983887
199.039520	1049.015137	967.096313	992.127075	69.444435
199.421539	948.892151	1037.637451	944.341125	-5.128188
199.803513	967.096313	973.922913	953.443237	-199.998215
200.185471	1001.229126	948.892151	969.371887	60.869469
200.567383	1010.331238	1010.331238	978.473938	0.000000
200.949265	989.851563	989.851563	994.402588	0.000000
201.331131	930.687988	1044.463989	989.851563	52.000046
201.712967	946.616638	1037.637451	914.759338	-35.000015
202.094742	976.198425	1030.810913	964.820801	-20.833376
202.476517	980.749451	1026.259888	1071.770264	199.999863
202.858231	957.994263	1055.841675	960.269775	2.325573
203.239944	969.371887	994.402588	957.994263	-45.454678
203.621582	955.718750	935.239075	983.024963	-133.333237
204.003235	937.514587	969.371887	923.861450	-42.857170
204.384827	935.239075	1019.433350	971.647400	43.243233
204.766388	937.514587	1017.157776	917.034912	-25.714283
205.147934	985.300537	1039.912964	1008.055725	41.666687
205.529449	1021.708862	953.443237	939.790100	120.000015
205.910904	976.198425	1044.463989	937.514587	-56.666695
206.292343	948.892151	1019.433350	985.300537	51.612938
206.673767	930.687988	992.127075	921.585938	-14.814756
207.055115	998.953613	980.749451	973.922913	137.499878
207.436462	1010.331238	1012.606750	996.678101	-600.002686
207.817780	1014.882263	1069.494751	935.239075	-145.833298
208.199051	967.096313	976.198425	973.922913	75.000168
208.580307	994.402588	983.024963	1021.708862	-239.999786
208.961517	928.412476	971.647400	937.514587	21.052683
209.342712	983.024963	987.576050	960.269775	-499.994629
209.723846	976.198425	989.851563	948.892151	-200.000000
210.104965	1096.801025	1069.494751	942.065613	566.666138
210.486069	955.718750	1074.045776	910.208313	-38.461575
210.867111	985.300537	1044.463989	921.585938	-107.692497
211.248123	962.545288	1046.739624	939.790100	-27.026981
211.629120	962.545288	998.953613	882.902100	-218.749939
212.010071	994.402588	1044.463989	962.545288	-63.636452
212.390991	951.167725	1026.259888	898.830688	-69.697067
212.771881	983.024963	923.861450	978.473938	7.692284
213.152756	962.545288	992.127075	937.514587	-84.615242
213.533569	962.545288	944.341125	887.453125	412.499969
213.914368	930.687988	960.269775	971.647400	138.461594
214.295135	989.851563	985.300537	907.932800	1800.006714
214.675858	989.851563	928.412476	985.300537	7.407378
215.056549	978.473938	992.127075	903.381775	-549.999329
215.437225	1019.433350	978.473938	951.167725	166.666519
215.817841	978.473938	1071.770264	937.514587	-43.902428
216.198441	1010.331238	985.300537	987.576050	90.909111
216.579025	928.412476	1028.535400	1026.259888	97.727280
216.959549	1053.566162	1017.157776	1019.433350	93.749863
217.340057	973.922913	1012.606750	1030.810913	147.058838
217.720535	1003.504700	1008.055725	957.994263	-1000.004028
218.100967	1003.504700	1001.229126	946.616638	2499.943604
218.481369	994.402588	987.576050	978.473938	233.334229
218.861740	1003.504700	1067.219238	937.514587	-103.571510
219.242065	955.718750	978.473938	1033.086426	340.000153
219.622391	969.371887	1019.433350	1003.504700	68.181816
220.002670	994.402588	1012.606750	980.749451	-75.000084
220.382919	976.198425	962.545288	971.647400	33.333183
220.763123	932.963501	996.678101	978.473938	71.428589
221.143295	937.514587	1014.882263	983.024963	58.823502
221.523453	992.127075	1005.780212	978.473938	-100.000000
221.903549	957.994263	1003.504700	980.749451	49.999931
222.283630	1046.739624	1023.984375	944.341125	449.999451
222.663696	976.198425	1035.361938	964.820801	-19.230812
223.043701	923.861450	978.473938	926.136963	4.166653
223.423676	978.473938	1033.086426	1030.810913	95.833344
223.803635	967.096313	1012.606750	907.932800	-129.999878
224.183548	928.412476	996.678101	998.953613	103.333321
224.563431	962.545288	1014.882263	971.647400	17.391359
224.943283	946.616638	1008.055725	948.892151	3.703689
225.323105	937.514587	1058.117188	960.269775	18.867908
225.702881	1008.055725	1033.086426	962.545288	-181.818466
226.082642	919.310425	1026.259888	892.004150	-25.531942
226.462357	1017.157776	1035.361938	932.963501	-462.500122
226.842041	998.953613	967.096313	980.749451	57.142830
227.221695	926.136963	1019.433350	951.167725	26.829294
227.601318	937.514587	1021.708862	971.647400	40.540539
227.980911	989.851563	996.678101	921.585938	-1000.003601
228.360474	976.198425	1021.708862	932.963501	-95.000023
228.739990	1028.535400	1135.484863	989.851563	-36.170204
229.119476	971.647400	1124.107300	928.412476	-28.358227
229.498932	1005.780212	1130.933838	937.514587	-54.545464
229.878372	996.678101	1187.821899	992.127075	-2.380943
230.257736	1008.055725	1212.852539	848.769287	-77.777794
230.637115	980.749451	1203.750488	967.096313	-6.122455
231.016449	992.127075	1128.658325	1003.504700	8.333348
231.395737	903.381775	1121.831787	901.106262	-1.041663
231.774994	937.514587	1014.882263	1055.841675	152.941254
232.154221	964.820801	1146.862427	998.953613	18.750004
232.533417	937.514587	1146.862427	976.198425	18.478260
232.912582	917.034912	1167.342163	932.963501	6.363615
233.291702	928.412476	1115.005249	953.443237	13.414647
233.670792	996.678101	1119.556274	903.381775	-75.925873
234.049866	907.932800	1133.209351	921.585938	6.060612
234.428894	957.994263	1176.444214	980.749451	10.416659
234.807892	973.922913	1183.270874	948.892151	-11.956534
235.186874	985.300537	1133.209351	917.034912	-46.153858
235.565781	967.096313	1212.852539	930.687988	-14.814813
235.944687	1028.535400	1185.546387	901.106262	-81.159378
236.323547	948.892151	1256.087524	992.127075	14.074080
236.702377	926.136963	1201.474976	998.953613	26.446276
237.081177	980.749451	1174.168701	1046.739624	34.117687
237.459946	980.749451	1190.097412	983.024963	1.086952
237.838669	942.065613	1165.066650	964.820801	10.204073
238.217361	928.412476	1256.087524	1019.433350	27.777786
238.596039	994.402588	1208.301514	928.412476	-30.851072
238.974670	942.065613	1208.301514	953.443237	4.273512
239.353271	957.994263	1224.230225	983.024963	9.401698
239.731842	980.749451	1240.158813	969.371887	-4.385950
240.110367	919.310425	1158.240112	930.687988	4.761888
240.488876	928.412476	1237.883301	962.545288	11.029412
240.867340	964.820801	1253.812012	942.065613	-7.874007
241.245789	1019.433350	1258.363037	912.483826	-44.761925
241.624176	969.371887	1228.781250	923.861450	-17.543869
242.002548	957.994263	1467.710938	1005.780212	9.375002
242.380890	1023.984375	1495.017212	951.167725	-15.458933
242.759186	1019.433350	1533.701050	987.576050	-6.194692
243.137451	932.963501	1592.864502	967.096313	5.172414
243.515686	971.647400	1658.854614	1012.606750	5.960262
243.893890	964.820801	1658.854614	969.371887	0.655744
244.272049	967.096313	1517.772339	1035.361938	12.396694
244.650192	889.728638	1606.517700	1035.361938	20.317455
245.028290	905.657288	1506.394775	1008.055725	17.045454
245.406357	960.269775	1492.741699	985.300537	4.700861
245.784393	955.718750	1447.231201	1026.259888	14.351851
246.162384	907.932800	1501.843750	987.576050	13.409965
246.540359	948.892151	1592.864502	1030.810913	12.720851
246.918289	955.718750	1615.619751	1080.872437	18.965525
247.296204	989.851563	1756.702026	1051.290649	8.011873
247.674057	973.922913	2066.172852	1096.801025	11.249999
248.051895	976.198425	2243.663574	1096.801025	9.515260
248.429703	948.892151	2352.888428	1115.005249	11.831449
248.807465	1010.331238	2336.959961	1108.178589	7.375640
249.185196	1019.433350	2095.754639	1103.627563	7.822405
249.562897	964.820801	1893.233276	1094.525513	13.970592
249.940567	1001.229126	1840.896362	1044.463989	5.149047
250.318192	1021.708862	1779.457275	1010.331238	-1.501504
250.695801	994.402588	1649.752563	1053.566162	9.027783
251.073349	980.749451	1579.211426	1074.045776	15.589349
251.450882	955.718750	1501.843750	1051.290649	17.500004
251.828400	1053.566162	1524.598877	955.718750	-20.772955
252.205872	987.576050	1565.558350	1012.606750	4.330704
252.583313	926.136963	1636.099487	1124.107300	27.884619
252.960693	980.749451	1722.569214	1042.188477	8.282204
253.338074	955.718750	1913.713013	1037.637451	8.551064
253.715408	1019.433350	1845.447388	1094.525513	9.090906
254.092682	923.861450	1665.681274	1062.668213	18.711655
254.469955	989.851563	1654.303589	1042.188477	7.876703
254.847198	937.514587	1574.660400	1023.984375	13.571428
255.224365	1017.157776	1508.670288	1033.086426	3.240741
255.601563	910.208313	1506.394775	978.473938	11.450381
255.978683	973.922913	1547.354126	1028.535400	9.523808
256.355743	976.198425	1499.568237	1019.433350	8.260875
256.732819	930.687988	1570.109375	1012.606750	12.811389
257.109894	944.341125	1549.629639	1055.841675	18.421059
257.486877	1005.780212	1576.935913	1026.259888	3.585655
257.863831	1028.535400	1683.885376	1060.392700	4.861113
258.240753	1008.055725	1672.507813	1099.076538	13.698627
258.617645	1017.157776	1692.987427	1012.606750	-0.673398
258.994507	1003.504700	1799.937012	1074.045776	8.857134
259.371307	980.749451	1836.345337	1105.903076	14.627656
259.748108	985.300537	2125.336426	1074.045776	7.784425
260.124878	998.953613	2314.204590	1089.974487	6.920419
260.501617	898.830688	2500.797363	1228.781250	20.596594
260.878296	919.310425	2803.441650	1199.199463	14.855071
261.254944	951.167725	2889.911377	1135.484863	9.507040
261.631561	989.851563	2864.880615	1144.586914	8.252424
262.008179	946.616638	2521.277100	1176.444214	14.595374
262.384735	960.269775	2168.571289	1085.423462	10.357820
262.761261	973.922913	2018.386963	1076.321289	9.803915
263.137695	926.136963	2027.489014	1005.780212	7.231407
263.514191	928.412476	1934.192627	1046.739624	11.764713
263.890594	996.678101	1970.601074	1058.117188	6.308414
264.267029	944.341125	1909.161987	1053.566162	11.320758
264.643341	978.473938	1875.029175	1096.801025	13.197969
265.019653	942.065613	1845.447388	1023.984375	9.068011
265.395935	992.127075	1831.794189	1071.770264	9.485091
265.772217	1017.157776	1863.651489	1033.086426	1.881721
266.148407	953.443237	1829.518677	1083.147949	14.805199
266.524597	992.127075	1970.601074	1023.984375	3.255815
266.900726	926.136963	2029.764526	1051.290649	11.340210
267.276855	967.096313	2004.733887	1105.903076	13.377192
267.652924	967.096313	2241.387939	1069.494751	8.035714
268.028992	953.443237	2168.571289	1094.525513	11.610486
268.404999	955.718750	2118.509766	1099.076538	12.328767
268.781006	894.279663	2111.683350	1049.015137	12.710284
269.156921	980.749451	2125.336426	1085.423462	9.145134
269.532837	973.922913	2170.846924	1044.463989	5.893530
269.908661	953.443237	2086.652588	1058.117188	9.236947
270.284546	892.004150	2143.540527	1096.801025	16.363638
270.660339	1023.984375	2148.091553	1017.157776	-0.607291
271.036133	937.514587	2141.265137	1117.280762	14.933840
271.411835	944.341125	2364.266113	1126.382813	12.820514
271.787537	969.371887	2448.460449	1110.454102	9.538456
272.163239	967.096313	2616.848877	1117.280762	9.103453
272.538849	1035.361938	2780.686523	1126.382813	5.215126
272.914459	987.576050	2812.543701	1135.484863	8.104736
273.290070	980.749451	2632.777588	1155.964600	10.606064
273.665588	944.341125	2491.695313	1058.117188	7.352942
274.041046	996.678101	2537.205811	1044.463989	3.101917
274.416565	1010.331238	2441.633789	1119.556274	7.631164
274.791962	1005.780212	2389.296875	1124.107300	8.552632
275.167389	971.647400	2316.480225	1039.912964	5.076138
275.542755	983.024963	2402.949951	1133.209351	10.576923
275.918060	989.851563	2245.938965	1101.352051	8.876810
276.293365	1005.780212	2336.959961	1060.392700	4.102563
276.668640	976.198425	2475.766602	1089.974487	7.587255
277.043854	1023.984375	2489.419678	1094.525513	4.813664
277.419037	937.514587	2514.450439	1165.066650	14.430015
277.794189	964.820801	2439.358398	1035.361938	4.783950
278.169312	971.647400	2491.695313	1124.107300	10.029941
278.544373	976.198425	2514.450439	1078.596802	6.656801
278.919464	930.687988	2509.899414	1128.658325	12.536025
279.294464	935.239075	2330.133301	1101.352051	11.908643
279.669464	985.300537	2459.837891	1060.392700	5.092591
280.044403	1012.606750	2380.194824	1119.556274	7.820302
280.419312	944.341125	2437.082764	1099.076538	10.365853
280.794189	1019.433350	2430.256104	1151.413574	9.354841
281.169037	1037.637451	2559.960938	1096.801025	3.886400
281.543854	998.953613	2553.134277	1160.515625	10.395317
281.918671	980.749451	2589.542725	1153.689087	10.749650
282.293365	987.576050	2869.431641	1221.954712	12.454658
282.668091	926.136963	2878.533936	1133.209351	10.606060
283.042786	978.473938	3003.687500	1094.525513	5.730338
283.417419	967.096313	3005.962891	1146.862427	8.816963
283.792053	980.749451	2889.911377	1067.219238	4.529202
284.166595	973.922913	2937.697266	1190.097412	11.008113
284.541138	960.269775	2785.237549	1121.831787	8.852869
284.915619	998.953613	2939.972900	1192.372925	9.964832
285.290100	1055.841675	2921.768799	1137.760376	4.390241
285.664520	996.678101	2894.462402	1144.586914	7.793763
286.038940	930.687988	2935.421875	1201.474976	13.507379
286.413300	987.576050	3140.218750	1262.914063	12.790698
286.787628	896.555176	3165.249512	1185.546387	12.738217
287.161896	955.718750	3219.861816	1210.577026	11.256280
287.536194	1001.229126	3304.056152	1231.056763	9.980238
287.910400	987.576050	3137.943115	1231.056763	11.322750
288.284607	937.514587	3074.228516	1199.199463	12.247071
288.658752	955.718750	2935.421875	1233.332275	14.022987
289.032867	971.647400	2814.819336	1165.066650	10.493826
289.406921	1005.780212	2851.227539	1301.597900	16.029593
289.781006	912.483826	2853.503174	1235.607788	16.647127
290.154999	1008.055725	2878.533936	1246.985352	12.773719
290.529022	1003.504700	3169.800537	1374.414551	17.121845
290.902954	910.208313	3112.912354	1328.904175	19.008266
291.276825	1026.259888	3253.994629	1365.312500	15.219612
291.650757	985.300537	3331.362549	1365.312500	16.197865
292.024597	960.269775	3297.229736	1403.996338	18.987341
292.398407	962.545288	3265.372314	1301.597900	14.723320
292.772156	969.371887	3119.739014	1338.006226	17.142855
293.145905	978.473938	3115.187988	1413.098389	20.340786
293.519592	989.851563	2969.554688	1360.761475	18.735634
293.893280	1037.637451	3053.749023	1287.944824	12.415353
294.266907	917.034912	3110.636963	1338.006226	19.190870
294.640533	980.749451	3294.954102	1358.485962	16.322519
295.014069	978.473938	3249.443604	1465.435425	21.442888
295.387604	1001.229126	3547.536865	1390.343262	15.281506
295.761078	1019.433350	3588.496338	1472.261963	17.626217
296.134552	967.096313	3465.618164	1399.445313	17.304190
296.507996	967.096313	3547.536865	1374.414551	15.784834
296.881378	923.861450	3549.812500	1485.915039	21.403811
297.254730	939.790100	3729.578613	1497.292725	19.983686
297.628021	1028.535400	3988.988037	1604.242188	19.446579
298.001282	953.443237	4034.498291	1574.660400	20.162481
298.374573	1019.433350	4091.386475	1506.394775	15.851851
298.747803	1001.229126	3909.344727	1574.660400	19.718309
299.121002	998.953613	3747.782715	1438.129150	15.976822
299.494141	885.177612	3602.149414	1406.271851	19.179230
299.867188	1001.229126	3565.741211	1397.169800	15.439219
300.240265	1001.229126	3388.250488	1429.027100	17.921831
300.613312	969.371887	3367.770752	1390.343262	17.552183
300.986328	1026.259888	3345.015625	1458.608887	18.645731
301.359314	987.576050	3203.933350	1424.476074	19.712526
301.732239	951.167725	3140.218750	1435.853638	22.141371
302.105103	921.585938	3265.372314	1388.067749	19.902916
302.477997	953.443237	3188.004639	1485.915039	23.828917
302.850830	1003.504700	3367.770752	1399.445313	16.746872
303.223602	1008.055725	3135.667725	1424.476074	19.572193
303.596375	1051.290649	3208.484375	1399.445313	16.139238
303.969116	973.922913	3071.953125	1408.547363	20.715834
304.341766	987.576050	3076.504150	1403.996338	19.934639
304.714478	980.749451	3156.147461	1360.761475	17.468620
305.087067	944.341125	3162.973877	1424.476074	21.641027
305.459656	989.851563	3144.769775	1438.129150	20.802534
305.832214	1003.504700	3172.075928	1426.751587	19.517315
306.204681	971.647400	3040.095703	1479.088501	24.532454
306.577148	907.932800	3056.024414	1417.649414	23.728813
306.949646	998.953613	3140.218750	1392.618774	18.384699
307.322021	921.585938	3167.524902	1399.445313	21.276596
307.694397	935.239075	3126.565674	1360.761475	19.418484
308.066742	1019.433350	3053.749023	1338.006226	15.659953
308.439026	980.749451	3324.535889	1292.495850	13.300973
308.811279	1001.229126	3217.586426	1403.996338	18.172485
309.183502	998.953613	3417.832275	1426.751587	17.685797
309.555695	946.616638	3481.546875	1472.261963	20.736088
309.927887	951.167725	3415.556641	1469.986450	21.052631
310.299988	1023.984375	3556.638916	1497.292725	18.688232
310.672058	942.065613	3499.750977	1417.649414	18.594305
311.044128	946.616638	3558.914551	1524.598877	22.125435
311.416168	914.759338	3654.486328	1490.466064	21.013288
311.788147	942.065613	3636.282227	1460.884399	19.256760
312.160065	967.096313	3615.802490	1474.537476	19.158077
312.531982	944.341125	3549.812500	1465.435425	20.000000
312.903870	992.127075	3433.760986	1383.516602	16.029821
313.275696	948.892151	3417.832275	1424.476074	19.262674
313.647491	1014.882263	3319.984863	1403.996338	16.880554
314.019318	1001.229126	3404.179199	1374.414551	15.530302
314.391022	1017.157776	3415.556641	1378.965576	15.085389
314.762726	1003.504700	3445.138428	1394.894287	16.029823
315.134369	989.851563	3563.465576	1531.425537	21.043325
315.505981	937.514587	3699.996826	1440.404663	18.204283
315.877594	976.198425	3759.160400	1429.027100	16.271465
316.249146	1049.015137	3593.047363	1508.670288	18.067976
316.620636	928.412476	3467.893799	1408.547363	18.906809
316.992157	973.922913	3276.750000	1401.720825	18.577074
317.363586	896.555176	3290.403076	1331.179688	18.155895
317.735016	985.300537	3256.270264	1378.965576	17.334667
318.106354	960.269775	3304.056152	1358.485962	16.990294
318.477722	1026.259888	3347.291016	1351.659302	14.019605
318.849060	919.310425	3253.994629	1403.996338	20.760235
319.220306	910.208313	3244.892578	1312.975464	17.251461
319.591522	1014.882263	3442.863037	1403.996338	16.026243
319.962738	985.300537	3454.240479	1417.649414	17.511518
320.333923	944.341125	3304.056152	1417.649414	20.057858
320.705017	1042.188477	3310.882813	1369.863525	14.443332
321.076111	998.953613	3329.086914	1363.036987	15.625002
321.447144	978.473938	3283.576416	1335.730713	15.498520
321.818176	914.759338	3222.137451	1267.465088	15.285996
322.189178	967.096313	3201.657715	1372.139038	18.126272
322.560120	1005.780212	3326.811523	1319.802124	13.529413
322.931030	962.545288	3299.505127	1338.006226	16.066212
323.301910	985.300537	3411.005615	1374.414551	16.041275
323.672729	1030.810913	3679.517090	1454.057739	15.979381
324.043549	980.749451	3795.568604	1431.302612	16.006470
324.414337	983.024963	3918.446777	1456.333252	16.124029
324.785095	976.198425	4132.345703	1549.629639	18.168709
325.155792	985.300537	4089.110840	1520.047852	17.228737
325.526428	910.208313	4109.590332	1472.261963	17.567570
325.897034	987.576050	3968.508301	1474.537476	16.335878
326.267670	946.616638	3893.416016	1469.986450	17.760620
326.638184	889.728638	4009.467773	1406.271851	16.557257
327.008728	1028.535400	4068.631104	1469.986450	14.520959
327.379211	1014.882263	4048.151611	1433.578125	13.803452
327.749634	937.514587	3927.548828	1397.169800	15.372909
328.120026	978.473938	3891.140625	1469.986450	16.875000
328.490417	937.514587	3811.497314	1422.200562	16.864611
328.860748	987.576050	3659.037354	1381.241089	14.735943
329.231079	946.616638	3654.486328	1381.241089	16.050421
329.601318	973.922913	3834.252441	1324.353149	12.251393
329.971558	942.065613	3786.466553	1397.169800	16.000002
330.341736	969.371887	3754.609375	1353.934937	13.807190
330.711914	971.647400	3690.894775	1369.863525	14.644351
331.082062	957.994263	3756.884766	1406.271851	16.016260
331.452148	973.922913	3709.098877	1417.649414	16.222960
331.822174	1021.708862	3634.006836	1315.250977	11.236931
332.192200	926.136963	3877.487549	1394.894287	15.882807
332.562134	989.851563	3872.936523	1378.965576	13.496447
332.932129	996.678101	4009.467773	1463.159912	15.483385
333.302063	894.279663	4077.733398	1449.506714	17.441029
333.671906	953.443237	4145.999023	1476.812988	16.393442
334.041718	930.687988	4152.825684	1476.812988	16.949152
334.411499	967.096313	4216.540039	1458.608887	15.126052
334.781281	992.127075	4307.561035	1465.435425	14.275908
335.151001	1008.055725	4230.193359	1506.394775	15.466101
335.520721	1010.331238	3986.712402	1422.200562	13.837923
335.890350	944.341125	4216.540039	1463.159912	15.855355
336.259979	926.136963	4221.091309	1401.720825	14.433702
336.629547	930.687988	4266.601563	1517.772339	17.598907
336.999084	948.892151	4328.040527	1488.190552	15.959595
337.368622	912.483826	4150.549805	1433.578125	16.092764
337.738098	878.351013	4303.009766	1458.608887	16.943523
338.107513	951.167725	4243.846191	1399.445313	13.614375
338.476898	944.341125	4252.948242	1397.169800	13.686384
338.846252	967.096313	4419.061523	1440.404663	13.711272
339.215576	1055.841675	4425.888184	1492.741699	12.964214
339.584869	971.647400	4189.233887	1476.812988	15.700140
339.954132	944.341125	4186.958496	1474.537476	16.350876
340.323334	1028.535400	4155.101074	1508.670288	15.356623
340.692505	926.136963	3950.304199	1394.894287	15.500377
341.061646	960.269775	3977.610352	1403.996338	14.705883
341.430786	967.096313	4173.305176	1415.373901	13.981546
341.799896	926.136963	4127.794922	1406.271851	14.996446
342.168915	876.075500	4373.550781	1449.506714	16.395576
342.537903	937.514587	4428.163574	1440.404663	14.406779
342.906830	1026.259888	4478.225098	1492.741699	13.513514
343.275757	1001.229126	4496.429199	1474.537476	13.541666
343.644684	1042.188477	4460.020996	1447.231201	11.850865
344.013550	1017.157776	4587.449707	1547.354126	14.850224
344.382355	1001.229126	4828.655273	1545.078613	14.209274
344.751129	983.024963	4849.134766	1474.537476	12.713361
345.119873	1092.250000	5015.248047	1586.037964	12.587005
345.488586	1008.055725	5311.065430	1510.945801	11.686938
345.857269	1001.229126	5301.963379	1638.375000	14.814816
346.225891	1008.055725	5531.791016	1606.517700	13.229377
346.594482	1035.361938	5570.475098	1692.987427	14.500751
346.963043	1046.739624	5622.812012	1688.436401	14.022873
347.331543	1010.331238	5042.554199	1583.762451	14.221218
347.700043	948.892151	4976.563965	1526.874512	14.350285
348.068512	887.453125	4933.329102	1469.986450	14.398200
348.436951	994.402588	4985.666016	1608.793213	15.393387
348.805328	951.167725	4769.491699	1567.833862	16.150179
349.173645	1021.708862	4776.318359	1474.537476	12.060605
349.541931	983.024963	4760.389648	1488.190552	13.373492
349.910217	978.473938	4865.063477	1515.496826	13.817329
350.278473	923.861450	4944.706543	1433.578125	12.676854
350.646667	1021.708862	4999.319336	1563.282837	13.615561
351.014801	914.759338	5085.789063	1576.935913	15.875613
351.382935	980.749451	5024.350098	1558.731689	14.293752
351.751007	1035.361938	5010.696777	1524.598877	12.306810
352.119049	1071.770264	5188.187500	1556.456177	11.774461
352.487091	1028.535400	5126.748535	1531.425537	12.270962
352.855072	917.034912	5185.912109	1590.588989	15.778250
353.222992	985.300537	5092.615723	1563.282837	14.072021
353.590881	1010.331238	5427.117188	1581.486938	12.931478
353.958740	987.576050	5620.536621	1581.486938	12.819252
354.326599	987.576050	5697.904297	1674.783325	14.589372
354.694397	985.300537	5889.047852	1711.191650	14.802785
355.062134	898.830688	5964.140137	1724.844727	16.307276
355.429840	994.402588	5925.456055	1683.885376	13.982464
355.797516	992.127075	6159.834961	1665.681274	13.033906
356.165192	1014.882263	6259.957520	1756.702026	14.143167
356.532776	912.483826	6401.040039	1681.609863	14.013268
356.900360	978.473938	6583.081543	1793.110352	14.535120
357.267883	992.127075	6528.469238	1736.222412	13.440198
357.635376	1051.290649	6803.807129	1818.141113	13.330695
358.002808	1008.055725	7493.290039	1829.518677	12.666666
358.370270	948.892151	7682.158203	1931.917114	14.599526
358.737640	955.718750	7552.453613	1888.682251	14.142807
359.105011	1005.780212	7322.625977	1895.508789	14.085013
359.472321	1044.463989	7111.002441	1813.590088	12.678170
359.839569	1067.219238	7090.522949	1911.437500	14.015867
360.206787	962.545288	7024.532715	1804.488037	13.888890
360.574005	873.799988	7136.033203	1834.069824	15.334303
360.941193	962.545288	7754.975098	1947.845825	14.505863
361.308319	926.136963	8021.210938	1986.529663	14.945477
361.675415	1017.157776	8676.560547	2109.407715	14.260250
362.042450	926.136963	9129.389648	2136.714111	14.757281
362.409424	928.412476	9871.208984	2116.234375	13.282443
362.776428	1014.882263	9916.719727	2261.867676	14.008179
363.143402	1033.086426	9432.034180	2186.775391	13.736114
363.510284	946.616638	8792.612305	2104.856689	14.762180
363.877136	989.851563	7898.332520	2038.866699	15.184454
364.243988	955.718750	7388.616211	1913.713013	14.892112
364.610779	964.820801	7172.441406	1811.314575	13.636365
364.977539	951.167725	6967.644531	1861.375977	15.128593
365.344269	1044.463989	6658.173828	1743.048950	12.444265
365.710938	985.300537	6737.816895	1758.977539	13.449366
366.077576	905.657288	6637.694336	1802.212524	15.641128
366.444183	976.198425	6587.632813	1745.324463	13.706407
366.810760	983.024963	6471.581055	1822.692139	15.298508
367.177277	944.341125	6583.081543	1777.181763	14.769977
367.543823	976.198425	6660.449219	1749.875488	13.610888
367.910248	1051.290649	6583.081543	1738.497925	12.422872
368.276642	948.892151	6517.091797	1802.212524	15.324888
368.643036	935.239075	6476.132324	1733.946899	14.414785
369.009399	980.749451	6303.192383	1770.355225	14.835402
369.375671	932.963501	6253.131348	1722.569214	14.841744
369.741974	987.576050	6253.131348	1699.814087	13.526361
370.108215	948.892151	6216.722656	1658.854614	13.477322
370.474396	921.585938	6091.569336	1672.507813	14.524648
370.840546	892.004150	6125.702148	1670.232300	14.869565
371.206665	973.922913	6401.040039	1777.181763	14.800838
371.572784	964.820801	6644.520508	1749.875488	13.822116
371.938843	1008.055725	6601.285645	1731.671387	12.937348
372.304840	935.239075	6705.959961	1768.079712	14.432178
372.670807	932.963501	6649.071777	1802.212524	15.207007
373.036713	962.545288	6712.786133	1768.079712	14.008708
373.402649	964.820801	6503.438477	1736.222412	13.927692
373.768524	985.300537	6594.459473	1727.120239	13.225150
374.134308	960.269775	6494.336426	1738.497925	14.062501
374.500122	894.279663	6412.417480	1786.283813	16.164949
374.865875	971.647400	6692.306641	1779.457275	14.120923
375.231567	996.678101	6708.235352	1765.804199	13.466137
375.597260	1019.433350	6730.990723	1802.212524	13.705178
375.962891	996.678101	6951.715820	1804.488037	13.565152
376.328461	1008.055725	7156.512695	1829.518677	13.360474
376.694031	1019.433350	7215.676270	1895.508789	14.138816
377.059540	985.300537	7659.402832	1886.406738	13.501534
377.425049	1005.780212	7932.465332	1975.152100	13.994744
377.790497	1001.229126	8314.752930	1954.672363	13.036715
378.155945	935.239075	8612.846680	1970.601074	13.485478
378.521301	962.545288	8301.099609	1993.356201	14.046513
378.886597	894.279663	8121.333984	1859.100464	13.350125
379.251892	935.239075	7802.760742	1845.447388	13.253811
379.617157	1010.331238	7584.311035	1818.141113	12.287988
379.982422	944.341125	7286.217773	2011.560425	16.828131
380.347595	942.065613	7167.890625	1870.478149	14.912281
380.712738	998.953613	7240.707031	1820.416626	13.160773
381.077820	992.127075	7288.493164	1822.692139	13.191181
381.442902	960.269775	7463.708008	1829.518677	13.365990
381.807953	983.024963	7163.339355	1909.161987	14.985273
382.172974	980.749451	7161.063965	1854.549438	14.138439
382.537933	951.167725	7097.349609	1818.141113	14.105886
382.902832	987.576050	7151.961914	1790.834839	13.030638
383.267700	998.953613	7593.413086	1904.610962	13.733610
383.632538	932.963501	7566.106445	1859.100464	13.962264
383.997345	976.198425	7805.036133	1936.468262	14.061980
384.362152	912.483826	7741.321777	1849.998413	13.728758
384.726898	971.647400	7761.801270	1936.468262	14.209116
385.091553	942.065613	7939.291992	1904.610962	13.756098
385.456238	985.300537	8114.507324	1972.876587	13.852537
385.820862	980.749451	7962.047363	1859.100464	12.581486
386.185425	980.749451	7925.639160	1945.570313	13.892529
386.549988	946.616638	8157.742188	1902.335449	13.253393
386.914490	960.269775	8109.956055	1915.988525	13.367282
387.278961	983.024963	8166.844238	1936.468262	13.272095
387.643372	1012.606750	8319.303711	1859.100464	11.585176
388.007782	996.678101	8542.304688	1956.947876	12.726177
388.372101	957.994263	8749.377930	1954.672363	12.792055
388.736450	930.687988	8401.222656	1968.325439	13.889735
389.100739	942.065613	8348.885742	1849.998413	12.258064
389.464966	969.371887	8285.170898	1929.641602	13.125972
389.829163	983.024963	8166.844238	1870.478149	12.353501
390.193329	989.851563	8043.965820	1909.161987	13.032259
390.557495	926.136963	8305.651367	1945.570313	13.814368
390.921570	882.902100	8469.488281	1963.774414	14.247150
391.285614	948.892151	8642.427734	1911.437500	12.511092
391.649597	1012.606750	9017.888672	2043.417725	12.876637
392.013550	978.473938	9504.850586	2050.244141	12.570055
392.377502	964.820801	9752.881836	2063.897461	12.506475
392.741455	1019.433350	9507.125977	2047.968750	12.117963
393.105316	1014.882263	9536.708008	2007.009399	11.642189
393.469086	973.922913	9534.432617	2020.662476	12.227537
393.832886	1026.259888	9279.574219	1929.641602	10.945683
394.196655	973.922913	9454.789063	2013.835938	12.261873
394.560333	973.922913	9666.412109	1915.988525	10.837697
394.924042	983.024963	9593.595703	1952.396851	11.257929
395.287659	987.576050	9623.177734	1925.090576	10.856389
395.651245	928.412476	9520.779297	1945.570313	11.837923
396.014771	939.790100	9131.665039	1986.529663	12.777777
396.378296	1035.361938	8854.051758	1856.824951	10.506402
396.741791	928.412476	8776.683594	1845.447388	11.684547
397.105255	953.443237	8453.559570	1888.682251	12.469661
397.468628	1001.229126	8351.161133	1840.896362	11.424150
397.832001	935.239075	8260.140625	1802.212524	11.835975
398.195313	948.892151	8656.081055	1822.692139	11.337467
398.558624	935.239075	8540.029297	1777.181763	11.071216
398.921844	898.830688	8565.060547	1809.039063	11.872959
399.285095	946.616638	8669.734375	1740.773438	10.282852
399.648254	942.065613	8701.591797	1774.906250	10.733137
400.011383	932.963501	8574.162109	1733.946899	10.482431
400.374451	953.443237	8501.345703	1768.079712	10.792886
400.737549	992.127075	8608.294922	1718.018188	9.530923
401.100586	973.922913	8469.488281	1788.559326	10.868245
401.463562	983.024963	8553.682617	1829.518677	11.181244
401.826508	994.402588	8844.949219	1795.385864	10.202898
402.189392	1014.882263	8626.499023	1777.181763	10.014949
402.552246	960.269775	8694.764648	1799.937012	10.856135
402.915070	996.678101	8685.663086	1754.426514	9.854986
403.277893	996.678101	8872.255859	1765.804199	9.765965
403.640656	955.718750	9131.665039	1856.824951	11.021430
404.003326	953.443237	9568.565430	1852.273926	10.433174
404.366028	962.545288	9454.789063	1859.100464	10.557341
404.728699	969.371887	9896.240234	1954.672363	11.037471
405.091248	939.790100	10103.312500	1895.508789	10.429600
405.453857	994.402588	10301.282227	1884.131226	9.559902
405.816345	971.647400	9934.923828	1979.703125	11.246510
406.178833	1030.810913	10176.128906	1870.478149	9.181389
406.541260	1008.055725	10112.414063	1900.059814	9.797550
406.903687	944.341125	9775.637695	1845.447388	10.203555
407.266052	962.545288	9707.372070	1774.906250	9.289618
407.628387	967.096313	9552.636719	1761.253052	9.249933
407.990662	1001.229126	9552.636719	1729.395752	8.515167
408.352905	1008.055725	9463.890625	1799.937012	9.364909
408.715118	989.851563	9336.461914	1652.028076	7.933478
409.077332	998.953613	9236.338867	1729.395752	8.867403
409.439484	1037.637451	9409.278320	1652.028076	7.338951
409.801575	1021.708862	9648.208008	1818.141113	9.232392
410.163605	951.167725	9853.004883	1797.661377	9.509202
410.525635	1055.841675	9971.332031	1827.243164	8.652373
410.887604	971.647400	10112.414063	1784.008301	8.887230
411.249573	978.473938	10148.823242	1704.365112	7.915633
411.611481	994.402588	10219.364258	1686.160889	7.498766
411.973328	976.198425	9937.199219	1690.711914	7.973590
412.335144	926.136963	10064.628906	1706.640625	8.540836
412.696930	1008.055725	9752.881836	1633.823975	7.155869
413.058685	946.616638	9923.545898	1654.303589	7.883397
413.420410	953.443237	9707.372070	1699.814087	8.526124
413.782104	980.749451	9837.076172	1702.089600	8.144913
414.143707	978.473938	9900.791016	1629.272949	7.294058
414.505310	989.851563	9907.617188	1615.619751	7.017096
414.866852	987.576050	9932.648438	1649.752563	7.402696
415.228394	1003.504700	10360.446289	1586.037964	6.225680
415.589874	932.963501	10294.456055	1670.232300	7.875548
415.951324	978.473938	10346.792969	1574.660400	6.363857
416.312683	973.922913	10663.090820	1661.130127	7.092531
416.674072	955.718750	11029.449219	1604.242188	6.437768
417.035370	967.096313	11393.532227	1606.517700	6.132694
417.396667	1033.086426	11527.788086	1683.885376	6.201215
417.757935	1021.708862	11725.758789	1690.711914	6.250000
418.119141	1026.259888	12174.036133	1704.365112	6.082874
418.480286	985.300537	12328.771484	1697.538574	6.278837
418.841400	887.453125	13157.061523	1681.609863	6.472552
419.202484	869.248962	13216.224609	1690.711914	6.653151
419.563568	953.443237	13830.615234	1818.141113	6.714967
419.924591	973.922913	14813.640625	1813.590088	6.067083
420.285553	917.034912	14708.966797	1777.181763	6.236595
420.646484	987.576050	16024.217773	1845.447388	5.705206
421.007355	960.269775	15990.084961	1943.294800	6.540500
421.368225	976.198425	17257.548828	1934.192627	5.883997
421.729065	998.953613	17457.794922	1927.366089	5.640813
422.089874	955.718750	17962.960938	1993.356201	6.101151
422.450592	935.239075	17699.000000	1945.570313	6.026876
422.811279	987.576050	17787.746094	1968.325439	5.837735
423.171936	962.545288	17689.898438	1938.743774	5.835941
423.532593	1005.780212	17282.580078	1972.876587	5.941563
423.893127	955.718750	17614.806641	2002.458252	6.283294
424.253723	985.300537	18033.501953	2013.835938	6.033102
424.614197	1042.188477	18001.644531	2041.142212	5.890246
424.974670	1012.606750	18290.636719	2075.274902	6.150402
425.335052	1026.259888	18879.996094	2077.550537	5.888351
425.695496	1014.882263	17787.746094	2057.070801	6.213540
426.055817	932.963501	17960.685547	2082.101563	6.748631
426.416168	1003.504700	17792.296875	2022.937988	6.072106
426.776398	1023.984375	16720.527344	2009.284912	6.277182
427.136627	955.718750	16126.616211	1906.886475	6.269687
427.496826	930.687988	16160.749023	1888.682251	6.290154
427.856995	935.239075	15562.287109	1915.988525	6.705040
428.217102	971.647400	14902.385742	1786.283813	5.847762
428.577179	1010.331238	14731.721680	1836.345337	6.019901
428.937195	1003.504700	14381.291016	1861.375977	6.412655
429.297180	969.371887	13807.860352	1784.008301	6.345267
429.657135	996.678101	13587.134766	1747.599976	5.964215
430.017059	971.647400	13707.737305	1847.722900	6.878685
430.376984	978.473938	13878.401367	1834.069824	6.632564
430.736786	939.790100	13414.195313	1802.212524	6.913536
431.096588	964.820801	13471.083008	1765.804199	6.404659
431.456360	896.555176	13584.859375	1761.253052	6.814920
431.816071	983.024963	13234.428711	1831.794189	6.927935
432.175781	964.820801	13400.541992	1793.110352	6.660567
432.535400	937.514587	13352.755859	1815.865601	7.074780
432.895020	942.065613	13359.583008	1875.029175	7.513286
433.254578	976.198425	13687.257813	1836.345337	6.766918
433.614105	985.300537	13764.625000	1749.875488	5.982906
433.973602	953.443237	14190.147461	1818.141113	6.532577
434.333038	871.524475	13967.146484	1768.079712	6.846221
434.692444	969.371887	14356.260742	1811.314575	6.289308
435.051819	957.994263	14233.382813	1770.355225	6.119301
435.411133	1021.708862	14285.719727	1779.457275	5.712815
435.770416	932.963501	13939.840820	1745.324463	6.245626
436.129669	989.851563	14267.515625	1849.998413	6.478149
436.488861	992.127075	13946.666992	1802.212524	6.253294
436.848083	992.127075	14051.340820	1740.773438	5.732706
437.207184	998.953613	13930.738281	1731.671387	5.666022
437.566254	969.371887	14433.628906	1727.120239	5.627851
437.925293	1010.331238	14308.474609	1777.181763	5.766598
438.284363	967.096313	14374.464844	1786.283813	6.109980
438.643311	1046.739624	14572.435547	1638.375000	4.374158
439.002258	932.963501	14449.556641	1626.997314	5.134680
439.361145	1021.708862	15478.092773	1722.569214	4.848103
439.719971	948.892151	15614.624023	1727.120239	5.306439
440.078827	971.647400	15842.175781	1715.742676	5.003825
440.437592	1037.637451	16379.198242	1768.079712	4.761199
440.796295	1042.188477	16545.312500	1699.814087	4.241891
441.155029	1017.157776	17614.806641	1715.742676	4.208939
441.513672	898.830688	18336.146484	1772.630737	5.011093
441.872253	969.371887	17960.685547	1820.416626	5.008705
442.230865	923.861450	17544.265625	1768.079712	5.079409
442.589386	1085.423462	17341.744141	1672.507813	3.611422
442.947876	960.269775	17068.681641	1743.048950	4.859444
443.306335	967.096313	16820.650391	1824.967651	5.411224
443.664764	957.994263	16074.279297	1652.028076	4.591299
444.023102	919.310425	16688.669922	1697.538574	4.935065
444.381500	973.922913	16586.271484	1670.232300	4.459991
444.739777	957.994263	16424.708984	1629.272949	4.340150
445.098022	851.044800	16467.943359	1663.405762	5.201807
445.456238	978.473938	16631.781250	1752.151001	4.942579
445.814423	917.034912	17150.599609	1804.488037	5.466779
446.172577	996.678101	18217.820313	1738.497925	4.307611
446.530701	932.963501	18365.728516	1788.559326	4.907975
446.888733	910.208313	18727.537109	1806.763550	5.031929
447.246765	944.341125	19808.408203	1875.029175	4.933655
447.604736	962.545288	18905.027344	1802.212524	4.679772
447.962677	930.687988	19376.060547	1849.998413	4.983962
448.320587	967.096313	19637.744141	1922.815063	5.118830
448.678436	1005.780212	18859.515625	1877.304688	4.881468
449.036255	971.647400	18907.302734	1831.794189	4.795736
449.394043	971.647400	17696.724609	1856.824951	5.292517
449.751770	971.647400	17869.664063	1900.059814	5.494209
450.109467	939.790100	17398.632813	1834.069824	5.433431
450.467163	935.239075	17325.814453	1859.100464	5.636540
450.824768	980.749451	16959.457031	1829.518677	5.311876
451.182343	953.443237	17166.529297	1927.366089	6.007017
451.539886	923.861450	16097.034180	1897.784302	6.418716
451.897369	951.167725	16388.300781	1818.141113	5.616156
452.254822	985.300537	16392.851563	1943.294800	6.217693
452.612274	962.545288	16438.361328	2020.662476	6.837230
452.969635	996.678101	16624.955078	1963.774414	6.188118
453.326965	957.994263	16647.710938	2050.244141	6.961565
453.684326	953.443237	16165.299805	2113.958740	7.629020
454.041534	967.096313	15971.880859	2173.122314	8.037610
454.398773	978.473938	15532.705078	2052.519775	7.379612
454.755951	880.626526	15305.153320	2157.193604	8.849977
455.113098	1021.708862	14902.385742	2045.693237	7.377049
455.470215	969.371887	14747.650391	2168.571289	8.703551
455.827240	932.963501	15018.437500	2059.346436	7.996770
456.184265	960.269775	14704.415039	2264.143311	9.486756
456.541260	962.545288	14565.608398	2170.846924	8.882570
456.898193	1008.055725	14834.120117	2339.235352	9.628045
457.255096	1010.331238	14972.926758	2416.603027	10.071707
457.611969	964.820801	14649.802734	2416.603027	10.608580
457.968781	1003.504700	15009.334961	2619.124512	11.535338
458.325531	1010.331238	15321.082031	2635.052979	11.353154
458.682312	973.922913	15762.532227	2716.971924	11.786429
459.039001	953.443237	16816.099609	2805.717041	11.676946
459.395630	969.371887	17287.130859	3078.779541	12.927068
459.752289	971.647400	18870.894531	3338.188965	13.221457
460.108856	951.167725	20306.748047	3679.517090	14.095932
460.465363	930.687988	20816.464844	3731.854004	14.086279
460.821899	921.585938	20930.240234	3834.252441	14.557034
461.178345	928.412476	20238.482422	3804.670898	14.895121
461.534760	942.065613	19869.847656	3872.936523	15.484492
461.891144	976.198425	18597.832031	4009.467773	17.213327
462.247467	1023.984375	18158.656250	3754.609375	15.936255
462.603760	937.514587	17769.541016	3927.548828	17.763958
462.960052	987.576050	16793.343750	3841.079102	18.053555
463.316254	1049.015137	16317.759766	3652.210938	17.049181
463.672424	967.096313	16001.461914	3629.455566	17.708492
464.028564	962.545288	15616.899414	3763.711426	19.114906
464.384644	1008.055725	15585.041992	3811.497314	19.231970
464.740723	992.127075	15990.084961	3831.977051	18.934912
465.096741	921.585938	15614.624023	3825.150391	19.761497
465.452698	932.963501	15703.369141	3948.028564	20.412878
465.808655	901.106262	15849.001953	4132.345703	21.616686
466.164520	889.728638	15439.408203	4152.825684	22.427279
466.520355	971.647400	16347.341797	4234.744141	21.222435
466.876190	973.922913	16413.332031	4355.346680	21.901251
467.231964	978.473938	16331.413086	4400.857422	22.291389
467.587677	983.024963	17155.150391	4582.898926	22.259747
467.943390	948.892151	17246.171875	4746.736328	23.303547
468.299011	998.953613	16404.228516	4601.103027	23.382570
468.654633	939.790100	16467.943359	4553.316895	23.270809
469.010223	1039.912964	16565.791016	4662.541992	23.332844
469.365723	1005.780212	15673.787109	4610.205078	24.573378
469.721191	1030.810913	16015.115234	4785.420410	25.056948
470.076660	1005.780212	15589.592773	4664.817871	25.089720
470.432068	973.922913	15928.645508	4751.287598	25.258675
470.787445	996.678101	15318.805664	4803.624512	26.580870
471.142792	987.576050	15703.369141	4780.869141	25.777021
471.498016	951.167725	15748.879883	4803.624512	26.034138
471.853271	996.678101	15539.531250	4842.308105	26.443434
472.208496	994.402588	15753.430664	4931.053711	26.672834
472.563660	951.167725	15739.777344	5094.891113	28.019697
472.918762	935.239075	16310.933594	4997.043457	26.417048
473.273865	987.576050	16649.986328	5397.535156	28.156324
473.628876	980.749451	17055.029297	5556.821777	28.468287
473.983917	969.371887	16995.865234	5429.392578	27.829048
474.338837	978.473938	17004.966797	5456.698730	27.942636
474.693787	978.473938	16938.976563	5452.147949	28.029655
475.048645	939.790100	16695.496094	5579.577148	29.448298
475.403503	946.616638	16784.242188	5782.098145	30.531605
475.758270	1023.984375	17027.722656	5918.629395	30.584385
476.113037	946.616638	16768.312500	5779.822754	30.547964
476.467773	994.402588	17419.111328	5904.976563	29.897480
476.822418	1026.259888	18315.666016	6121.150879	29.468283
477.177063	917.034912	18183.687500	6018.752441	29.546652
477.531647	976.198425	18700.230469	6291.814941	29.991014
477.886200	928.412476	19109.824219	6599.010254	31.188984
478.240723	919.310425	19703.734375	6737.816895	30.975166
478.595184	964.820801	19690.082031	6881.174805	31.595575
478.949585	951.167725	20377.289063	6979.022461	31.029634
479.303986	907.932800	20322.675781	7092.798340	31.856543
479.658325	1023.984375	20322.675781	7117.829102	31.576466
480.012634	962.545288	20349.982422	7274.839844	32.558685
480.366913	955.718750	21021.261719	7465.983887	32.445000
480.721130	901.106262	21558.283203	7627.545898	32.562237
481.075317	946.616638	22486.697266	8053.068359	32.991760
481.429474	962.545288	23492.476563	8451.284180	33.239067
481.783569	996.678101	24436.818359	8694.764648	32.841469
482.137604	962.545288	25881.773438	9147.593750	32.846313
482.491669	964.820801	28155.019531	9962.230469	33.090637
482.845612	1019.433350	31054.033203	10977.112305	33.154026
483.199554	939.790100	35204.582031	12599.558594	34.028423
483.553436	1019.433350	41039.019531	14554.231445	33.820435
483.907318	980.749451	47870.132813	17227.968750	34.650105
484.261139	937.514587	53791.035156	19860.746094	35.803165
484.614899	892.004150	56366.925781	21278.394531	36.748840
484.968628	1014.882263	55886.789063	21394.447266	37.140251
485.322357	989.851563	53520.250000	20106.501953	36.391598
485.675964	964.820801	49763.363281	18424.892578	35.779903
486.029572	989.851563	45565.027344	16909.394531	35.713921
486.383148	976.198425	43346.394531	15753.430664	34.876480
486.736694	1026.259888	40661.281250	15032.090820	35.337009
487.090149	1001.229126	40847.875000	15218.683594	35.680431
487.443604	944.341125	41958.328125	15712.470703	36.007545
487.796997	932.963501	44281.636719	16492.974609	35.895012
488.150360	987.576050	45189.566406	17114.191406	36.483910
488.503693	962.545288	45797.132813	17250.722656	36.329494
488.856964	835.116150	45071.242188	16820.650391	36.136833
489.210175	953.443237	42074.378906	16026.493164	36.655415
489.563416	917.034912	40065.093750	15255.091797	36.625206
489.916565	996.678101	37700.828125	14067.269531	35.610664
490.269653	948.892151	35341.113281	13682.707031	37.025272
490.622772	967.096313	34267.066406	13314.072266	37.078041
490.975769	960.269775	34125.984375	13129.754883	36.692970
491.328735	957.994263	35564.113281	14103.677734	37.986588
491.681732	980.749451	37780.472656	15034.366211	38.189465
492.034607	1005.780212	40306.300781	15808.042969	37.664291
492.387482	1005.780212	40998.058594	16026.493164	37.559032
492.740326	946.616638	39530.347656	15591.868164	37.957066
493.093079	1008.055725	37689.449219	14779.507813	37.543427
493.445862	1026.259888	34558.335938	13573.481445	37.418568
493.798523	960.269775	31911.904297	12556.324219	37.465080
494.151215	937.514587	29486.199219	11805.402344	38.067909
494.503815	942.065613	27454.158203	10954.357422	37.765003
494.856384	951.167725	25943.212891	10394.579102	37.785667
495.208923	1035.361938	24632.511719	10098.761719	38.408871
495.561432	923.861450	23874.763672	9782.463867	38.598057
495.913879	969.371887	24197.888672	9802.943359	38.028992
496.266296	926.136963	24345.796875	9566.289063	36.892731
496.618683	1021.708862	24015.845703	9812.045898	38.228603
496.970978	969.371887	24914.677734	10087.383789	38.078491
497.323273	985.300537	25158.158203	10283.078125	38.463707
497.675507	1019.433350	25296.964844	10187.506836	37.763615
498.027710	1028.535400	25349.300781	10139.720703	37.462578
498.379852	923.861450	24955.636719	10144.271484	38.367577
498.731995	971.647400	24409.511719	9930.373047	38.223301
499.084076	1051.290649	24320.765625	9809.770508	37.639351
499.436096	1080.872437	23981.712891	9739.229492	37.808033
499.788086	1049.015137	23340.017578	9557.187500	38.168636
500.140106	989.851563	22666.462891	9418.380859	38.883057
500.491943	1033.086426	22322.859375	9379.696289	39.204784
500.843842	1044.463989	22081.654297	9261.370117	39.058956
501.195679	1001.229126	21544.630859	8865.428711	38.280903
501.547455	1001.229126	21237.435547	8872.255859	38.895763
501.899231	987.576050	21189.650391	8904.113281	39.186752
502.250885	932.963501	21080.423828	8660.631836	38.355545
502.602600	957.994263	20941.617188	8772.132813	39.102711
502.954193	930.687988	20843.771484	8858.602539	39.812592
503.305786	1026.259888	20861.974609	8810.816406	39.245152
503.657379	932.963501	20909.759766	8767.582031	39.218594
504.008820	971.647400	20918.863281	8763.030273	39.060001
504.360291	994.402588	21096.353516	8854.051758	39.098938
504.711700	994.402588	21253.365234	8922.317383	39.132877
505.063080	946.616638	21226.058594	8920.041992	39.317776
505.414368	951.167725	21146.414063	8838.123047	39.053524
505.765656	1037.637451	21053.119141	8854.051758	39.051838
506.116943	932.963501	21353.486328	8822.194336	38.633835
506.468109	960.269775	20693.585938	8844.949219	39.956181
506.819305	989.851563	20880.179688	8676.560547	38.645462
507.170410	1023.984375	20930.240234	8735.724609	38.740284
507.521484	978.473938	20877.904297	9061.124023	40.617496
507.872559	1021.708862	21073.597656	8829.020508	38.935543
508.223480	967.096313	21073.597656	8876.806641	39.339069
508.574493	885.177612	21262.466797	9099.807617	40.312672
508.925385	994.402588	21788.111328	9397.901367	40.413662
509.276245	946.616638	21926.917969	9259.093750	39.620392
509.627045	939.790100	22284.175781	9532.156250	40.255863
509.977814	926.136963	22739.279297	9518.503906	39.390781
510.328613	1014.882263	22832.576172	9557.187500	39.153111
510.679260	1010.331238	22991.861328	9718.749023	39.616978
511.029999	987.576050	23171.628906	9855.280273	39.973328
511.380585	1017.157776	23201.210938	9775.637695	39.480972
511.731140	960.269775	23362.771484	10037.322266	40.518032
512.081726	1008.055725	23556.191406	9736.953125	38.712280
512.432129	1039.912964	23692.722656	10023.668945	39.658459
512.782654	978.473938	24061.357422	10182.956055	39.875793
513.133057	955.718750	23738.232422	10141.996094	40.321613
513.483398	989.851563	23968.060547	10189.782227	40.037632
513.833801	983.024963	24152.376953	10330.864258	40.345707
514.183960	1026.259888	23189.832031	9714.198242	39.199181
514.534302	983.024963	23406.007813	9937.199219	39.933018
514.884460	946.616638	23410.558594	9918.995117	39.941250
515.234619	953.443237	23091.984375	9739.229492	39.685478
515.584717	996.678101	23228.515625	9809.770508	39.641766
515.934753	898.830688	23228.515625	10000.914063	40.762253
516.284851	932.963501	23522.058594	9928.097656	39.820690
516.634766	948.892151	23239.894531	10010.015625	40.649242
516.984741	964.820801	24375.378906	10178.404297	39.356533
517.334595	1028.535400	24841.861328	10424.161133	39.455330
517.684448	994.402588	25497.210938	10913.397461	40.481052
518.034363	1014.882263	26805.634766	11393.532227	40.241753
518.384094	937.514587	27913.814453	11473.175781	39.055248
518.733826	969.371887	29092.533203	12101.219727	39.582489
519.083496	978.473938	29463.443359	12538.119141	40.581562
519.433167	962.545288	29993.640625	12456.201172	39.590847
519.782776	937.514587	29716.025391	12328.771484	39.582508
520.132324	944.341125	29001.511719	12135.352539	39.886459
520.481873	944.341125	28471.316406	11998.821289	40.158718
520.831299	1049.015137	27925.191406	11712.105469	39.674877
521.180786	930.687988	26867.074219	11379.879883	40.287769
521.530151	998.953613	26491.613281	11074.959961	39.525124
521.879517	1019.433350	26300.468750	11227.419922	40.378040
522.228882	953.443237	26352.806641	11077.235352	39.858448
522.578064	987.576050	25906.804688	10961.183594	40.023739
522.927307	930.687988	26020.580078	10915.672852	39.796841
523.276489	935.239075	25786.201172	10824.652344	39.794888
523.625610	976.198425	26459.755859	11074.959961	39.628540
523.974792	992.127075	27005.880859	11254.725586	39.450665
524.323792	889.728638	27486.015625	11411.737305	39.561947
524.672852	1012.606750	27542.904297	11987.443359	41.367184
525.021790	992.127075	28767.134766	12003.372070	39.644436
525.370728	1003.504700	30485.152344	12558.599609	39.194195
525.719604	973.922913	31427.218750	13238.980469	40.274979
526.068420	919.310425	33479.738281	13946.666992	40.009785
526.417297	932.963501	35088.531250	14417.700195	39.480347
526.765991	951.167725	35894.066406	15123.111328	40.557434
527.114746	964.820801	37357.226563	15362.041016	39.561058
527.463379	1019.433350	38074.015625	16386.025391	41.470154
527.812012	976.198425	40579.363281	16802.445313	39.962078
528.160706	996.678101	44131.449219	18363.453125	40.261662
528.509155	1012.606750	49189.933594	20755.025391	40.978649
528.857727	1062.668213	53458.808594	22691.494141	41.279427
529.206177	951.167725	56300.937500	24516.460938	42.575233
529.554565	1003.504700	56191.710938	24443.644531	42.473099
529.902893	994.402588	54935.625000	23710.925781	42.113476
530.251221	957.994263	52339.253906	22245.492188	41.430473
530.599548	1008.055725	48313.859375	20755.025391	41.743225
530.947876	951.167725	44802.730469	18722.984375	40.527214
531.296021	914.759338	41305.253906	16893.466797	39.560562
531.644165	1017.157776	38961.468750	16042.421875	39.598198
531.992249	980.749451	37025.000000	15439.408203	40.113636
532.340454	962.545288	36335.515625	14736.272461	38.938568
532.688354	983.024963	36740.558594	15175.448242	39.690720
533.036438	951.167725	37864.667969	15744.328125	40.075203
533.384338	967.096313	39432.500000	16572.617188	40.570278
533.732239	1012.606750	41605.621094	17275.753906	40.063904
534.080139	932.963501	42103.960938	17605.705078	40.496330
534.427917	946.616638	41940.125000	17177.906250	39.594784
534.775757	932.963501	39448.429688	16301.831055	39.903107
535.123474	1033.086426	38074.015625	15396.173828	38.776260
535.471191	896.555176	35598.246094	14695.313477	39.763935
535.818848	1019.433350	34287.546875	14258.413086	39.794800
536.166382	989.851563	33807.414063	13776.002930	38.961308
536.513977	921.585938	33406.921875	14024.035156	40.333427
536.861511	946.616638	34207.902344	14253.862305	40.008213
537.208984	1030.810913	33928.015625	14146.913086	39.869961
537.556396	939.790100	33862.023438	14024.035156	39.742882
537.903809	976.198425	32872.171875	13662.226563	39.773136
538.251160	935.239075	32066.638672	13509.766602	40.391781
538.598389	1001.229126	30960.736328	12904.478516	39.731125
538.945740	1046.739624	29486.199219	12453.925781	40.110420
539.292969	969.371887	29192.656250	12513.088867	40.901394
539.640137	898.830688	29256.371094	12176.311523	39.768894
539.987244	946.616638	29422.484375	12128.525391	39.268021
540.334351	951.167725	30228.017578	12777.048828	40.393284
540.681458	994.402588	32282.814453	13541.624023	40.101818
541.028442	978.473938	35184.101563	14674.833984	40.041248
541.375366	971.647400	38706.609375	16383.750000	40.843033
541.722290	960.269775	41466.816406	17651.214844	41.205551
542.069153	978.473938	43143.875000	18443.095703	41.419315
542.416016	1012.606750	43473.824219	18356.626953	40.846729
542.762756	989.851563	42204.085938	17776.369141	40.729904
543.109558	944.341125	40850.148438	17152.875000	40.616982
543.456299	894.279663	38672.476563	16256.320313	40.663776
543.802917	951.167725	37111.468750	15798.941406	41.060978
544.149536	962.545288	35668.789063	14825.017578	39.942303
544.496094	985.300537	33263.562500	14014.932617	40.366585
544.842651	1014.882263	31766.269531	13380.062500	40.210155
545.189148	912.483826	29968.609375	12658.722656	40.426037
545.535583	917.034912	29158.523438	12403.864258	40.673595
545.882019	960.269775	28459.939453	12303.741211	41.249481
546.228333	962.545288	27904.710938	12117.148438	41.402031
546.574707	967.096313	28334.785156	12253.679688	41.240540
546.920898	948.892151	28414.427734	12321.945313	41.408451
547.267212	1010.331238	28339.335938	12069.362305	40.466282
547.613342	1001.229126	27868.302734	11844.085938	40.357414
547.959473	1021.708862	27856.925781	11718.931641	39.862629
548.305664	914.759338	27094.626953	11398.083984	40.043457
548.651611	1033.086426	25761.171875	10836.030273	39.642952
548.997742	992.127075	24564.246094	10510.630859	40.380348
549.343689	946.616638	23660.865234	10014.567383	39.921864
549.689575	951.167725	22741.554688	9714.198242	40.215122
550.035522	896.555176	21897.335938	9206.756836	39.570915
550.381287	1001.229126	21128.210938	8913.214844	39.310345
550.727173	1017.157776	21094.078125	8769.857422	38.614986
551.072876	983.024963	20452.380859	8444.458008	38.323986
551.418640	987.576050	20293.093750	8537.753906	39.108910
551.764282	923.861450	20463.757813	8494.519531	38.744617
552.109863	967.096313	20309.023438	8398.947266	38.423527
552.455505	994.402588	20861.974609	8369.365234	37.120605
552.801025	1008.055725	20846.046875	8471.763672	37.623306
553.146545	969.371887	21210.128906	8480.866211	37.110737
553.491943	953.443237	21075.873047	8769.857422	38.844284
553.837341	992.127075	21464.988281	8615.122070	37.234634
554.182800	996.678101	21221.507813	8396.671875	36.588657
554.528015	1010.331238	20670.830078	8378.467773	37.476856
554.873352	964.820801	19983.623047	8109.956055	37.568798
555.218628	978.473938	20179.318359	8098.578613	37.082249
555.563721	935.239075	19756.072266	7946.118652	37.250629
555.908875	987.576050	19323.722656	7780.005859	37.043934
556.254028	930.687988	19057.486328	7704.913574	37.371330
556.599121	942.065613	18859.515625	7597.963867	37.147579
556.944031	903.381775	18745.740234	7486.463379	36.895802
557.289063	996.678101	18666.097656	7434.126465	36.432709
557.633972	960.269775	18704.781250	7322.625977	35.855347
557.978882	969.371887	18593.281250	7429.575195	36.655903
558.323792	994.402588	18352.076172	7329.452637	36.497112
558.668518	998.953613	17846.910156	7199.748047	36.804428
559.013306	1003.504700	18176.859375	7272.564453	36.504570
559.358032	987.576050	17931.103516	7197.472168	36.650551
559.702637	1014.882263	18049.431641	7245.258301	36.574940
560.047363	994.402588	18272.431641	7272.564453	36.336102
560.391846	1019.433350	18047.156250	7122.379883	35.841236
560.736450	964.820801	17926.552734	6997.226563	35.564796
561.080933	948.892151	18256.503906	7151.961914	35.840126
561.425354	939.790100	18092.666016	7179.268066	36.375698
561.769775	957.994263	18461.300781	7236.156250	35.868435
562.114136	1012.606750	18368.003906	7222.502930	35.780777
562.458496	1001.229126	18374.830078	7263.462402	36.044533
562.802673	951.167725	18456.750000	7158.788574	35.460808
563.146912	980.749451	18149.554688	7318.074707	36.911861
563.491150	946.616638	18003.919922	6942.613770	35.152081
563.835266	980.749451	18181.412109	6892.552734	34.369625
564.179443	948.892151	18167.757813	6958.542480	34.901546
564.523438	894.279663	18333.871094	7038.186035	35.229645
564.867493	973.922913	18072.185547	6990.399902	35.187653
565.211426	1003.504700	18170.033203	7042.736816	35.180275
565.555359	928.412476	18882.271484	7197.472168	34.917614
565.899231	987.576050	19184.916016	7213.400879	34.212830
566.243042	1008.055725	19794.755859	7456.881836	34.326553
566.586914	973.922913	20065.542969	7511.494141	34.243149
566.930603	998.953613	20318.125000	7775.454590	35.076561
567.274292	989.851563	20243.033203	7814.138672	35.444984
567.617981	978.473938	20281.716797	7636.647949	34.492516
567.961609	996.678101	20126.982422	7543.351563	34.221481
568.305237	951.167725	19726.490234	7306.697266	33.850441
568.648682	1021.708862	19574.029297	7293.043945	33.803509
568.992188	955.718750	19182.640625	7297.595215	34.794006
569.335632	969.371887	18859.515625	7051.838867	33.998981
569.679016	1026.259888	18820.832031	7038.186035	33.785168
570.022461	919.310425	18934.609375	7099.625000	34.305923
570.365662	939.790100	18818.556641	6831.113281	32.951511
570.708984	969.371887	18775.322266	6983.573242	33.776356
571.052185	942.065613	19280.488281	7206.574219	34.160568
571.395386	989.851563	19175.814453	7415.922363	35.335335
571.738525	1010.331238	19815.234375	7352.207520	33.724590
572.081604	1001.229126	20229.380859	7384.064941	33.195263
572.424683	978.473938	20372.738281	7509.218750	33.673588
572.767578	1039.912964	20791.433594	7395.442383	32.177418
573.110596	1062.668213	20513.820313	7386.340332	32.510525
573.453552	962.545288	20450.105469	7516.045410	33.629147
573.796387	1033.086426	20202.074219	7145.135254	31.885088
574.139282	948.892151	20154.287109	7136.033203	32.215641
574.481995	962.545288	19899.429688	7133.757813	32.588318
574.824768	1008.055725	19742.417969	7058.665527	32.296856
575.167480	992.127075	19840.265625	7047.288086	32.126041
575.510132	980.749451	19314.621094	7076.869629	33.250587
575.852722	894.279663	19410.193359	7147.410645	33.771656
576.195251	967.096313	19118.925781	7227.054199	34.486649
576.537842	1014.882263	19159.884766	6963.093750	32.781544
576.880188	948.892151	19023.353516	6771.949707	32.217049
577.222717	998.953613	18404.412109	6601.285645	32.187214
577.565063	1021.708862	17997.093750	6462.479004	32.050938
577.907410	1012.606750	17999.369141	6437.448242	31.935699
578.249756	953.443237	17130.121094	6255.406738	32.775352
578.591919	964.820801	16936.701172	6137.079590	32.383530
578.934204	955.718750	16602.199219	5763.894043	30.730076
579.276306	1005.780212	16279.076172	5841.261719	31.659712
579.618469	937.514587	15960.502930	5770.720703	32.172070
579.960571	928.412476	15962.778320	5732.037109	31.950962
580.302551	1014.882263	15250.540039	5499.933594	31.505753
580.644531	994.402588	15227.785156	5463.525391	31.398882
580.986511	1044.463989	15332.458984	5458.974609	30.896643
581.328369	901.106262	15218.683594	5445.321289	31.738714
581.670227	983.024963	15364.316406	5356.576172	30.411396
582.012024	985.300537	15104.907227	5488.556152	31.893637
582.353821	942.065613	14995.681641	5370.229004	31.509069
582.695496	1005.780212	15050.294922	5274.657227	30.395332
583.037231	1026.259888	14809.089844	5336.096191	31.269604
583.378845	957.994263	14868.252930	5026.625488	29.249142
583.720398	901.106262	14608.843750	5110.819824	30.710491
584.062012	948.892151	14415.423828	5081.237793	30.686045
584.403442	946.616638	14595.190430	5078.962402	30.276758
584.744934	1028.535400	14542.853516	5231.422363	31.099510
585.086365	953.443237	14447.281250	5033.452148	30.236088
585.427734	957.994263	14344.882813	4994.768066	30.154684
585.768982	948.892151	14183.321289	4833.206055	29.350069
586.110291	973.922913	14297.097656	4960.635254	29.923141
586.451599	896.555176	14103.677734	4780.869141	29.410749
586.792725	971.647400	14470.037109	4785.420410	28.253540
587.133850	1010.331238	13987.625977	4794.522461	29.160091
587.474915	971.647400	14376.740234	4758.113770	28.246475
587.815979	989.851563	14358.536133	4721.705566	27.914892
588.157043	939.790100	14549.679688	4942.431152	29.409798
588.497925	926.136963	14408.597656	4880.992188	29.333334
588.838867	1028.535400	14549.679688	4787.695801	27.802088
589.179749	1074.045776	14492.791992	4878.716797	28.353401
589.520569	955.718750	14941.069336	4849.134766	27.839245
589.861450	1023.984375	14979.753906	5001.594727	28.501549
590.202087	951.167725	14902.385742	4896.920898	28.282499
590.542847	964.820801	15148.141602	5010.696777	28.525591
590.883484	969.371887	14909.211914	4849.134766	27.832191
591.224121	930.687988	14781.783203	4901.471680	28.667650
591.564636	901.106262	14888.732422	4735.358887	27.411747
591.905151	962.545288	14827.293945	4803.624512	27.703920
592.245667	976.198425	14563.333008	4787.695801	28.052252
592.585999	1001.229126	14495.067383	4582.898926	26.543003
592.926453	987.576050	14278.892578	4678.470703	27.769217
593.266724	971.647400	14520.098633	4535.112793	26.301643
593.607056	1005.780212	14235.658203	4610.205078	27.244581
593.947388	1028.535400	14319.852539	4582.898926	26.741995
594.287476	1049.015137	14483.689453	4612.480469	26.524391
594.627686	989.851563	14633.874023	4621.582520	26.617744
594.967773	948.892151	15000.233398	4737.634277	26.963564
595.307861	1010.331238	15293.775391	4703.501465	25.856300
595.647888	946.616638	15063.947266	4582.898926	25.757576
595.987854	1001.229126	15334.734375	4721.705566	25.956503
596.327820	998.953613	15628.277344	4703.501465	25.322754
596.667725	853.320313	16201.708008	4780.869141	25.589325
597.007568	939.790100	16556.689453	5028.900879	26.183884
597.347351	1008.055725	17216.589844	5142.677246	25.508917
597.687073	1023.984375	17466.898438	5015.248047	24.273457
598.026794	962.545288	17407.734375	5081.237793	25.044968
598.366455	951.167725	16975.384766	4878.716797	24.510084
598.706116	937.514587	16424.708984	4808.175293	24.992653
599.045654	980.749451	15976.431641	4560.143555	23.869497
599.385193	989.851563	15025.263672	4516.908691	25.129702
599.724731	978.473938	14802.262695	4341.693848	24.329220
600.064087	912.483826	14770.405273	4139.172363	23.284071
600.403564	971.647400	14037.687500	4152.825684	24.346920
600.742920	921.585938	13980.799805	4039.049316	23.871754
601.082153	955.718750	13789.656250	4073.182129	24.290779
601.421387	926.136963	13996.728516	4084.559814	24.164345
601.760620	973.922913	13527.970703	3911.620361	23.400400
602.099854	946.616638	13871.575195	4041.324951	23.943661
602.438843	973.922913	13762.349609	3948.028564	23.256227
602.778015	937.514587	13960.320313	4095.937500	24.253014
603.117065	1042.188477	14617.945313	4173.305176	23.064030
603.456055	873.799988	14827.293945	4091.386475	23.059361
603.794983	983.024963	15059.396484	4166.478516	22.615585
604.133850	969.371887	15737.501953	4318.938477	22.681047
604.472778	996.678101	16229.014648	4494.153809	22.960859
604.811584	953.443237	16706.873047	4498.704590	22.504694
605.150330	948.892151	17339.468750	4689.848145	22.823822
605.489075	948.892151	17318.988281	4555.592773	22.032251
605.827698	948.892151	17328.091797	4619.307129	22.409002
606.166382	971.647400	16806.996094	4635.235840	23.135508
606.504883	985.300537	16376.922852	4466.847168	22.619751
606.843445	985.300537	16031.043945	4277.979004	21.884453
607.181946	876.075500	15546.358398	4218.815430	22.785791
607.520386	951.167725	14961.548828	4061.804688	22.202374
607.858826	942.065613	15004.784180	3891.140625	20.970873
608.197083	1012.606750	14456.383789	3786.466553	20.633039
608.535461	971.647400	14429.077148	3765.986816	20.764288
608.873718	989.851563	14265.240234	3854.732178	21.580389
609.211914	935.239075	14479.138672	3884.313965	21.774195
609.550171	1014.882263	14834.120117	3900.242676	20.879301
609.888245	971.647400	15468.990234	4152.825684	21.943182
610.226318	935.239075	15637.378906	4127.794922	21.714907
610.564392	1023.984375	15905.890625	4127.794922	20.856270
610.902344	1019.433350	15432.582031	4134.621094	21.613514
611.240295	955.718750	15268.744141	3975.334961	21.096981
611.578247	1017.157776	14916.039063	3934.375488	20.988869
611.916138	1008.055725	14595.190430	3968.508301	21.788645
612.253845	964.820801	14128.708984	3643.108887	20.345720
612.591675	953.443237	13939.840820	3688.619141	21.061852
612.929382	955.718750	13598.512695	3590.771729	20.842331
613.267090	989.851563	13236.704102	3570.292236	21.070236
613.604736	985.300537	13170.714844	3506.577637	20.690943
613.942261	955.718750	12959.090820	3449.689453	20.777250
614.279785	971.647400	12804.355469	3345.015625	20.057692
614.617310	955.718750	12508.538086	3338.188965	20.622414
614.954712	921.585938	12353.802734	3424.658691	21.894903
615.292175	973.922913	12262.781250	3294.954102	20.560371
615.629517	944.341125	12397.037109	3231.239502	19.968210
615.966797	1014.882263	12265.056641	3301.780762	20.327671
616.304138	1012.606750	12312.842773	3385.974854	21.002819
616.641296	967.096313	12255.955078	3329.086914	20.923203
616.978516	1014.882263	11978.341797	3267.647949	20.547945
617.315552	971.647400	12001.096680	3342.739990	21.497833
617.652771	923.861450	12342.424805	3240.341553	20.286964
617.989685	998.953613	12296.914063	3258.545898	20.000000
618.326721	994.402588	12331.046875	3258.545898	19.971901
618.663696	987.576050	12121.699219	3326.811523	21.009605
619.000549	1033.086426	12169.485352	3233.515137	19.758890
619.337463	1001.229126	12246.852539	3294.954102	20.396603
619.674194	1008.055725	11966.963867	3256.270264	20.514950
620.010986	964.820801	12244.577148	3319.984863	20.879566
620.347778	971.647400	12044.332031	3367.770752	21.639950
620.684387	942.065613	11561.920898	3147.045166	20.762802
621.020996	951.167725	11787.197266	3158.422852	20.369593
621.357605	910.208313	11871.391602	3115.187988	20.116257
621.694214	967.096313	11607.431641	3071.953125	19.781868
622.030579	935.239075	11571.023438	3151.596191	20.838682
622.367065	1014.882263	11691.625977	3201.657715	20.481668
622.703430	969.371887	11611.982422	2960.452637	18.708576
623.039795	944.341125	11659.768555	3253.994629	21.554470
623.376160	896.555176	11596.053711	3056.024414	20.182901
623.712402	935.239075	11530.063477	3024.167236	19.716497
624.048645	1008.055725	11493.655273	3115.187988	20.095488
624.384766	994.402588	11434.492188	3033.269287	19.529207
624.720886	939.790100	11370.777344	3078.779541	20.506107
625.057007	1019.433350	11778.095703	3126.565674	19.585449
625.392944	944.341125	11748.513672	3099.259277	19.945240
625.729004	923.861450	11625.635742	3140.218750	20.710186
626.064941	1023.984375	11935.106445	3101.534912	19.040668
626.400818	935.239075	12192.240234	3106.085938	19.284416
626.736633	932.963501	12531.292969	3228.964111	19.795959
627.072449	932.963501	12590.457031	3199.382324	19.441734
627.408264	1003.504700	12597.283203	3463.342773	21.216881
627.743896	957.994263	12758.844727	3461.067139	21.210953
628.079590	998.953613	12790.702148	3299.505127	19.509842
628.415161	992.127075	12765.671875	3356.393066	20.081175
628.750793	1014.882263	12262.781250	3276.750000	20.109245
629.086365	955.718750	12228.648438	3128.841064	19.277351
629.421753	942.065613	12071.637695	3185.729004	20.159475
629.757263	919.310425	11805.402344	3085.606201	19.899666
630.092651	960.269775	11928.280273	3112.912354	19.626554
630.427917	960.269775	11348.022461	3040.095703	20.021904
630.763184	976.198425	11402.634766	3008.238525	19.489305
631.098511	942.065613	11309.338867	2969.554688	19.556627
631.433716	1019.433350	11099.990234	2960.452637	19.255081
631.768799	992.127075	11061.306641	2830.747803	18.259886
632.103943	985.300537	10747.285156	2876.258301	19.370628
632.438965	1026.259888	10865.612305	2955.901611	19.611471
632.773987	985.300537	10799.622070	2889.911377	19.406445
633.109070	983.024963	10578.896484	2908.115479	20.061655
633.443848	994.402588	10308.109375	2812.543701	19.521133
633.778870	1021.708862	10647.162109	2751.104736	17.966904
634.113708	1005.780212	10603.926758	2871.707275	19.440493
634.448425	926.136963	10788.244141	2817.094727	19.173973
634.783264	994.402588	10917.949219	2878.533936	18.986471
635.117859	1003.504700	10549.314453	2846.676514	19.308701
635.452576	951.167725	10804.172852	2853.503174	19.307159
635.787170	953.443237	10628.958008	2858.054199	19.684855
636.121704	964.820801	10376.375000	2807.992676	19.584139
636.456177	957.994263	10394.579102	2819.370361	19.725103
636.790588	987.576050	10280.802734	2821.645752	19.735554
637.125122	978.473938	10116.965820	2710.145264	18.949202
637.459412	971.647400	10062.352539	2773.859863	19.824781
637.793762	957.994263	9825.699219	2723.798340	19.912752
638.128052	944.341125	9802.943359	2707.869873	19.907528
638.462280	957.994263	9695.994141	2610.022461	18.906250
638.796509	892.004150	9673.239258	2698.767578	20.575275
639.130615	985.300537	9468.442383	2685.114502	20.037552
639.464722	998.953613	9620.902344	2559.960938	18.105040
639.798767	955.718750	9500.299805	2596.369141	19.201063
640.132751	1035.361938	9240.889648	2696.492188	20.244040
640.466736	1033.086426	9331.911133	2628.226563	19.221279
640.800598	957.994263	9229.512695	2534.930176	19.064648
641.134521	980.749451	8958.725586	2714.696289	21.734169
641.468262	989.851563	9045.195313	2550.858887	19.378532
641.802063	978.473938	9195.379883	2573.614014	19.412905
642.135803	917.034912	8910.939453	2516.726074	20.011387
642.469421	942.065613	8888.184570	2548.583252	20.217638
642.803101	971.647400	8976.929688	2482.593262	18.874361
643.136658	971.647400	8669.734375	2555.409912	20.573456
643.470215	969.371887	8742.550781	2523.552490	19.994146
643.803711	969.371887	8712.968750	2473.491211	19.424042
644.137085	939.790100	8847.224609	2582.716064	20.776979
644.470581	964.820801	8726.622070	2441.633789	19.026678
644.803833	985.300537	8772.132813	2466.664551	19.023962
645.137207	1001.229126	8642.427734	2557.685303	20.369267
645.470459	985.300537	8672.009766	2521.277100	19.982239
645.803589	996.678101	8560.508789	2523.552490	20.186523
646.136780	1039.912964	8772.132813	2482.593262	18.658035
646.469849	1012.606750	8519.549805	2519.001465	20.066689
646.802979	998.953613	8656.081055	2416.603027	18.514116
647.135986	946.616638	8826.745117	2364.266113	17.990181
647.468994	969.371887	8799.438477	2398.398926	18.250511
647.801941	989.851563	8628.774414	2471.215576	19.392315
648.134766	939.790100	8703.867188	2528.103516	20.457209
648.467651	1019.433350	8990.583008	2421.154053	17.584927
648.800354	992.127075	8685.663086	2482.593262	19.372967
649.133179	937.514587	8667.458984	2455.286865	19.634970
649.465881	1060.392700	8790.336914	2475.766602	18.310272
649.798462	917.034912	8699.316406	2441.633789	19.590643
650.131104	976.198425	8533.203125	2582.716064	21.258656
650.463623	992.127075	8815.367188	2516.726074	19.488075
650.796143	973.922913	8724.346680	2496.246338	19.641809
651.128662	1008.055725	8681.112305	2437.082764	18.623960
651.461060	989.851563	8763.030273	2464.388916	18.969555
651.793396	907.932800	8986.031250	2484.868652	19.521126
652.125732	951.167725	8865.428711	2418.878662	18.545143
652.458008	976.198425	8790.336914	2500.797363	19.510773
652.790222	1005.780212	8724.346680	2482.593262	19.133255
653.122437	921.585938	8772.132813	2532.654541	20.521738
653.454529	914.759338	8774.408203	2534.930176	20.613783
653.786621	935.239075	8460.386719	2439.358398	19.987906
654.118713	957.994263	8533.203125	2484.868652	20.156202
654.450623	1017.157776	8544.581055	2505.348389	19.770254
654.782654	946.616638	8489.967773	2405.225586	19.336351
655.114502	989.851563	8453.559570	2350.613037	18.231709
655.446350	1026.259888	8235.109375	2455.286865	19.823233
655.778198	973.922913	8526.375977	2350.613037	18.228384
656.109863	1001.229126	8405.773438	2373.368164	18.531040
656.441650	985.300537	8310.202148	2357.439453	18.732525
656.773254	1023.984375	8273.793945	2423.429688	19.303202
657.104919	962.545288	8291.998047	2398.398926	19.590189
657.436462	998.953613	8255.589844	2346.062012	18.563814
657.767944	957.994263	8357.988281	2473.491211	20.479704
658.099548	983.024963	8451.284180	2453.011475	19.683123
658.430908	1058.117188	8535.478516	2519.001465	19.537430
658.762268	919.310425	8840.398438	2587.267090	21.057167
659.093628	1014.882263	9081.603516	2644.155273	20.197462
659.424927	944.341125	9284.125000	2682.839111	20.845840
659.756226	989.851563	9589.044922	2712.420898	20.031755
660.087341	953.443237	9805.218750	2685.114502	19.562983
660.418518	983.024963	9766.535156	2776.135498	20.414511
660.749573	937.514587	9650.483398	2687.390137	20.083574
661.080627	964.820801	9541.258789	2767.033203	21.013531
661.411621	971.647400	9347.839844	2746.553711	21.189894
661.742554	971.647400	9270.471680	2662.359375	20.372910
662.073547	994.402588	9024.715820	2496.246338	18.702181
662.404297	937.514587	8872.255859	2637.328613	21.422424
662.735229	1030.810913	8378.467773	2591.818115	21.244967
663.065979	953.443237	8606.019531	2450.735840	19.565863
663.396667	937.514587	8419.426758	2473.491211	20.529198
663.727417	1028.535400	8153.190918	2389.296875	19.099331
664.057922	998.953613	7993.904785	2339.235352	19.160702
664.388611	939.790100	8037.139648	2450.735840	21.288874
664.719116	992.127075	7868.750977	2341.510986	19.622766
665.049622	978.473938	7720.842285	2336.959961	20.148500
665.380005	953.443237	7732.219727	2421.154053	21.651560
665.710388	994.402588	7682.158203	2282.347412	19.258251
666.040771	946.616638	7764.077148	2368.817139	20.861147
666.371033	1001.229126	7679.882813	2300.551514	19.454855
666.701294	992.127075	7459.157227	2352.888428	21.041517
667.031555	967.096313	7568.382324	2336.959961	20.751467
667.361633	964.820801	7711.740234	2371.092773	20.843172
667.691772	1019.433350	7561.555664	2393.847900	21.008696
668.021790	980.749451	7399.993652	2421.154053	22.438850
668.351807	932.963501	7816.414063	2425.705078	21.685949
668.681763	962.545288	7463.708008	2346.062012	21.281067
669.011719	951.167725	7563.831055	2430.256104	22.367514
669.341614	942.065613	7561.555664	2443.909424	22.688208
669.671387	960.269775	7700.362305	2393.847900	21.269413
670.001221	930.687988	7638.923340	2432.531738	22.388060
670.330933	944.341125	7645.750000	2361.990479	21.154499
670.660583	946.616638	7643.474609	2264.143311	19.673803
670.990173	944.341125	7677.607422	2302.827148	20.175737
671.319763	994.402588	7420.473145	2346.062012	21.033997
671.649292	960.269775	7495.565430	2330.133301	20.961002
671.978821	960.269775	7327.176758	2332.408936	21.551109
672.308289	973.922913	7313.523926	2321.031250	21.249104
672.637695	980.749451	7390.891602	2264.143311	20.021301
672.966980	1026.259888	7281.666504	2173.122314	18.333939
673.296326	1012.606750	7390.891602	2318.755615	20.478060
673.625610	967.096313	7277.115723	2316.480225	21.384783
673.954773	994.402588	7161.063965	2227.734863	20.000000
674.283936	1042.188477	7283.941895	2350.613037	20.962452
674.613037	971.647400	6972.195801	2284.622803	21.880922
674.942078	1014.882263	7085.971680	2341.510986	21.851576
675.271118	926.136963	7136.033203	2391.572266	23.598385
675.600098	1021.708862	7060.940918	2266.418701	20.610399
675.928955	957.994263	7045.012207	2430.256104	24.186914
676.257813	960.269775	7099.625000	2346.062012	22.572275
676.586670	948.892151	7008.604004	2325.582275	22.718740
676.915466	1008.055725	7124.655762	2289.173828	20.944939
677.244141	992.127075	7056.390137	2400.674561	23.227018
677.572876	962.545288	7017.706055	2273.245361	21.646000
677.901489	964.820801	6940.338379	2309.653564	22.505713
678.230042	1028.535400	6935.787598	2318.755615	21.841293
678.558594	1019.433350	7029.083984	2275.520752	20.901173
678.887085	937.514587	7042.736816	2298.276123	22.288485
679.215515	942.065613	6994.951172	2373.368164	23.646614
679.543945	992.127075	7279.391113	2389.296875	22.222221
679.872253	1019.433350	7113.277832	2416.603027	22.927557
680.200562	1008.055725	7343.105469	2450.735840	22.772989
680.528809	962.545288	7418.197754	2453.011475	23.087770
680.856995	930.687988	7618.443848	2414.327637	22.184418
681.185120	939.790100	7864.199707	2589.542725	23.825174
681.513306	957.994263	7850.546875	2562.236328	23.275005
681.841309	1046.739624	7707.188965	2496.246338	21.762897
682.169373	919.310425	7607.065918	2355.164063	21.469889
682.497314	1019.433350	7632.096680	2423.429688	21.231936
682.825134	887.453125	7557.004395	2427.980713	23.097919
683.153076	987.576050	7657.127441	2448.460449	21.903788
683.480896	978.473938	7379.514160	2489.419678	23.604692
683.808655	1008.055725	7454.605957	2425.705078	21.990822
684.136414	1028.535400	7099.625000	2375.643799	22.188906
684.464050	987.576050	7051.838867	2325.582275	22.063791
684.791626	962.545288	6812.909180	2355.164063	23.803968
685.119263	1001.229126	6810.633789	2311.929199	22.561693
685.446838	1085.423462	6724.164063	2311.929199	21.751411
685.774292	944.341125	6646.796387	2280.071777	23.423782
686.101685	935.239075	6769.674316	2255.041016	22.620905
686.429077	942.065613	6585.357422	2280.071777	23.709673
686.756348	907.932800	6553.500000	2234.561523	23.498589
687.083679	921.585938	6553.500000	2284.622803	24.202019
687.410950	989.851563	6546.673340	2364.266113	24.733824
687.738159	953.443237	6478.407715	2387.021240	25.947281
688.065308	964.820801	6696.857910	2371.092773	24.533546
688.392395	980.749451	6692.306641	2296.000488	23.027887
688.719421	978.473938	6592.183594	2334.684326	24.158899
689.046448	1003.504700	6635.418457	2259.592041	22.303030
689.373413	973.922913	6496.611816	2298.276123	23.980227
689.700317	939.790100	6512.540527	2371.092773	25.683954
690.027100	1028.535400	6726.439453	2302.827148	22.364218
690.353943	932.963501	6426.070801	2307.378174	25.020714
690.680725	953.443237	6305.468262	2136.714111	22.108845
691.007446	1012.606750	6284.988281	2323.306641	24.859734
691.334106	1026.259888	6002.823730	2143.540527	22.450844
691.660645	983.024963	6107.498047	2175.397949	23.268208
691.987244	1026.259888	6061.987305	2207.255127	23.452326
692.313721	1008.055725	5964.140137	2257.316650	25.206612
692.640259	996.678101	5895.874512	2182.224365	24.198792
692.966675	1074.045776	5838.986328	2207.255127	23.782236
693.293030	971.647400	5916.354004	2127.612061	23.377821
693.619324	1044.463989	5791.200684	2202.704102	24.400764
693.945618	969.371887	5925.456055	2302.827148	26.905422
694.271851	939.790100	5838.986328	2191.326416	25.545750
694.598083	973.922913	5609.158691	2184.500000	26.116840
694.924194	932.963501	5775.271973	2116.234375	24.436090
695.250244	967.096313	5593.229980	2120.785400	24.938515
695.576294	1003.504700	5732.037109	2127.612061	23.772861
695.902283	964.820801	5584.127930	2086.652588	24.285715
696.228210	928.412476	5625.087402	2132.163086	25.629848
696.554138	996.678101	5768.445313	2132.163086	23.795900
696.879944	939.790100	5852.639648	2164.020264	24.918943
697.205750	969.371887	5877.670410	2098.030273	22.994904
697.531433	951.167725	5952.762207	2193.602051	24.840763
697.857178	921.585938	6021.027832	2173.122314	24.542614
698.182739	987.576050	6155.283691	2198.153076	23.425804
698.508423	944.341125	6628.592285	2336.959961	24.499603
698.833984	971.647400	6787.878418	2341.510986	23.552427
699.159485	971.647400	6833.389160	2407.500977	24.495338
699.484924	973.922913	7113.277832	2521.277100	25.203857
699.810303	921.585938	7393.166992	2505.348389	24.472574
700.135681	939.790100	7190.645508	2384.745850	23.116129
700.460999	889.728638	7129.206543	2519.001465	26.112326
700.786255	973.922913	6958.542480	2496.246338	25.437263
701.111450	866.973450	6787.878418	2387.021240	25.672560
701.436646	969.371887	6494.336426	2323.306641	24.505766
701.761719	1060.392700	6360.080566	2241.387939	22.284241
702.086792	973.922913	6362.355957	2332.408936	25.211153
702.411865	987.576050	5970.966797	2230.010498	24.931509
702.736816	1001.229126	5791.200684	2086.652588	22.660332
703.061646	937.514587	5763.894043	2084.376953	23.762373
703.386536	1010.331238	5656.944824	2170.846924	24.975513
703.711365	1033.086426	5326.994141	2052.519775	23.741390
704.036194	1044.463989	5306.514648	2072.999512	24.132408
704.360901	1019.433350	5342.922852	2022.937988	23.210527
704.685547	1023.984375	5199.564941	2032.040039	24.141689
705.010132	994.402588	5279.208496	2095.754639	25.703665
705.334717	964.820801	5067.584961	2123.060791	28.230722
705.659302	973.922913	5163.156738	2022.937988	25.040739
705.983765	973.922913	4965.186523	1872.753662	22.519955
706.308228	980.749451	5119.921875	2052.519775	25.893347
706.632568	967.096313	5156.330078	2066.172852	26.235741
706.956909	953.443237	5042.554199	2016.111450	25.987757
707.281189	951.167725	5076.687012	1902.335449	23.055708
707.605408	939.790100	5067.584961	2002.458252	25.744211
707.929626	967.096313	4874.165527	1927.366089	24.577751
708.253784	892.004150	5144.952637	1952.396851	24.933121
708.577820	989.851563	5008.421387	1997.907227	25.084936
708.901855	964.820801	4999.319336	2034.315552	26.508741
709.225830	960.269775	5076.687012	1945.570313	23.935877
709.549805	1003.504700	5067.584961	1986.529663	24.188128
709.873718	971.647400	4937.880371	1950.121338	24.670109
710.197510	1005.780212	5188.187500	2027.489014	24.428726
710.521362	962.545288	5069.860352	2016.111450	25.650970
710.845093	1001.229126	5190.462891	1925.090576	22.053232
711.168701	989.851563	5320.167480	2000.182739	23.331581
711.492432	953.443237	5349.749512	2011.560425	24.068323
711.816040	1021.708862	5370.229004	2041.142212	23.443226
712.139587	923.861450	5486.280762	2045.693237	24.588528
712.463074	994.402588	5342.922852	2132.163086	26.164312
712.786499	946.616638	5361.126953	2075.274902	25.567009
713.109924	944.341125	5317.892090	2084.376953	26.066597
713.433350	948.892151	5358.851563	2038.866699	24.716206
713.756592	1055.841675	5122.197266	2118.509766	26.133183
714.079834	955.718750	5169.983398	2100.305664	27.159824
714.403015	1014.882263	5158.605469	2018.386963	24.217464
714.726196	996.678101	5188.187500	2070.723877	25.624321
715.049255	1012.606750	4992.492676	1918.264038	22.755859
715.372375	939.790100	4997.043457	2000.182739	26.135725
715.695435	960.269775	5049.380859	1947.845825	24.151363
716.018311	967.096313	5081.237793	1966.049927	24.280973
716.341248	923.861450	5044.829590	1995.631714	26.007729
716.664063	1026.259888	4994.768066	2000.182739	24.541283
716.987000	939.790100	5051.656250	2020.662476	26.286661
717.309692	989.851563	4906.022949	1941.019287	24.288204
717.632385	951.167725	4919.675781	1947.845825	25.114679
717.955078	948.892151	4667.093262	1991.080688	28.029373
718.277649	1005.780212	4710.328125	1877.304688	23.525799
718.600220	957.994263	4819.553223	1861.375977	23.394222
718.922791	1008.055725	4573.796875	1809.039063	22.463305
719.245300	985.300537	4587.449707	1893.233276	25.205307
719.567688	996.678101	4475.949219	1843.171875	24.329630
719.890015	976.198425	4548.766113	1884.131226	25.414013
720.212341	967.096313	4423.612305	1788.559326	23.765635
720.534607	937.514587	4428.163574	1797.661377	24.641459
720.856873	937.514587	4296.183105	1827.243164	26.490515
721.179016	937.514587	4232.468750	1861.375977	28.038673
721.501160	894.279663	4118.692871	1690.711914	24.700069
721.823242	953.443237	4184.682617	1802.212524	26.267609
722.145264	1064.943726	4068.631104	1738.497925	22.424244
722.467224	1003.504700	4109.590332	1788.559326	25.274725
722.789185	951.167725	4089.110840	1763.528564	25.888323
723.111023	951.167725	4102.764160	1784.008301	26.425991
723.432861	960.269775	4100.488281	1654.303589	22.101450
723.754578	948.892151	4089.110840	1747.599976	25.434784
724.076294	967.096313	3979.885986	1704.365112	24.471300
724.397949	946.616638	3925.273438	1706.640625	25.515661
724.719666	976.198425	3941.202148	1747.599976	26.016884
725.041260	985.300537	4109.590332	1697.538574	22.796799
725.362732	973.922913	3948.028564	1677.058838	23.641928
725.684265	914.759338	3988.988037	1824.967651	29.607697
726.005676	930.687988	4048.151611	1799.937012	27.883213
726.327087	928.412476	3988.988037	1654.303589	23.717470
726.648438	885.177612	4020.845215	1702.089600	26.052252
726.969666	976.198425	4200.611328	1715.742676	22.935780
727.290894	948.892151	4182.407227	1727.120239	24.067556
727.612061	1001.229126	4139.172363	1745.324463	23.712835
727.933228	964.820801	4277.979004	1736.222412	23.282969
728.254395	951.167725	4284.805664	1708.916138	22.730375
728.575378	987.576050	4248.397461	1770.355225	24.005583
728.896301	953.443237	4182.407227	1790.834839	25.933756
729.217285	1058.117188	4293.907715	1688.436401	19.479605
729.538147	1042.188477	4332.591797	1738.497925	21.161827
729.858948	992.127075	4237.019531	1695.262939	21.669003
730.179810	980.749451	4396.306152	1824.967651	24.716856
730.500549	957.994263	4268.876953	1877.304688	27.766323
730.821228	996.678101	4232.468750	1729.395752	22.644161
731.141846	998.953613	4293.907715	1802.212524	24.378456
731.462402	967.096313	4330.315918	1749.875488	23.274696
731.782898	1005.780212	4480.500488	1799.937012	22.855272
732.103455	942.065613	4555.592773	1847.722900	25.062971
732.423889	971.647400	4530.562012	1756.702026	22.058823
732.744263	983.024963	4359.897949	1692.987427	21.024258
733.064636	973.922913	4364.448730	1772.630737	23.557049
733.384888	901.106262	4473.673828	1781.732788	24.649681
733.705200	998.953613	4343.969238	1786.283813	23.537415
734.025330	978.473938	4353.071289	1765.804199	23.331087
734.345520	1033.086426	4439.541016	1661.130127	18.436872
734.665527	969.371887	4341.693848	1777.181763	23.954115
734.985596	932.963501	4218.815430	1788.559326	26.038782
735.305542	998.953613	4200.611328	1774.906250	24.235966
735.625549	994.402588	4000.365479	1836.345337	28.009087
735.945435	1010.331238	4114.141602	1686.160889	21.774193
736.265259	896.555176	4057.253662	1781.732788	28.005760
736.585083	905.657288	4036.773926	1690.711914	25.072672
736.904785	987.576050	3836.528076	1688.436401	24.600636
737.224426	962.545288	3932.099854	1761.253052	26.896549
737.544128	969.371887	3936.650879	1708.916138	24.923313
737.863708	978.473938	3891.140625	1738.497925	26.093750
738.183289	939.790100	3922.997803	1699.814087	25.476736
738.502808	951.167725	3984.437012	1736.222412	25.881470
738.822205	1005.780212	3954.855225	1747.599976	25.154320
739.141541	946.616638	3954.855225	1706.640625	25.264751
739.460938	1049.015137	3970.783691	1745.324463	23.831776
739.780212	994.402588	4123.243652	1686.160889	22.109091
740.099426	932.963501	3934.375488	1745.324463	27.065958
740.418640	987.576050	3979.885986	1695.262939	23.650187
740.737793	935.239075	4070.906738	1747.599976	25.907110
741.056885	957.994263	4050.427002	1747.599976	25.533482
741.375977	983.024963	4054.978027	1640.650513	21.407408
741.694946	953.443237	3888.864990	1654.303589	23.875967
742.013855	926.136963	3872.936523	1697.538574	26.177607
742.332703	976.198425	3877.487549	1595.140137	21.333334
742.651550	969.371887	3893.416016	1690.711914	24.669258
742.970398	878.351013	3672.690674	1777.181763	32.166122
743.289124	939.790100	3638.557861	1683.885376	27.571667
743.607788	971.647400	3800.119629	1567.833862	21.078039
743.926453	978.473938	3770.538086	1686.160889	25.346371
744.245056	994.402588	3704.547852	1715.742676	26.616289
744.563599	955.718750	3661.312988	1613.344238	24.306139
744.882141	944.341125	3718.200928	1608.793213	23.954062
745.200500	942.065613	3574.843262	1579.211426	24.200518
745.518860	983.024963	3659.037354	1665.681274	25.510206
745.837219	939.790100	3583.945313	1683.885376	28.141134
746.155518	951.167725	3542.985840	1615.619751	25.636522
746.473755	946.616638	3486.097900	1695.262939	29.480286
746.791992	998.953613	3681.792725	1592.864502	22.137402
747.110107	955.718750	3461.067139	1595.140137	25.522255
747.428162	985.300537	3618.078125	1661.130127	25.669832
747.746216	983.024963	3465.618164	1720.293701	29.697525
748.064148	1010.331238	3536.159424	1718.018188	28.018017
748.382080	1028.535400	3433.760986	1683.885376	27.246923
748.700073	987.576050	3383.699463	1665.681274	28.300095
749.017822	1014.882263	3531.608398	1529.150024	20.433998
749.335632	985.300537	3461.067139	1561.007324	23.253677
749.653320	1021.708862	3540.710449	1670.232300	25.745258
749.971008	921.585938	3583.945313	1695.262939	29.059826
750.288696	994.402588	3504.302002	1622.446289	25.022665
750.606262	921.585938	3561.189941	1674.783325	28.534485
750.923828	935.239075	3579.394287	1620.170776	25.903612
751.241272	946.616638	3545.261475	1663.405762	27.583189
751.558716	957.994263	3522.506104	1699.814087	28.926357
751.876038	983.024963	3508.853027	1688.436401	27.927927
752.193481	1001.229126	3497.475586	1626.997314	25.068365
752.510681	889.728638	3467.893799	1574.660400	26.566637
752.827942	957.994263	3431.485352	1615.619751	26.586935
753.145081	939.790100	3440.587402	1622.446289	27.297541
753.462219	955.718750	3495.199951	1551.905151	23.476700
753.779297	980.749451	3385.974854	1570.109375	24.503315
754.096375	951.167725	3404.179199	1508.670288	22.727270
754.413330	1012.606750	3431.485352	1588.313477	23.800562
754.730286	989.851563	3360.944336	1622.446289	26.679459
755.047119	1003.504700	3379.148438	1624.721802	26.149422
755.363892	1008.055725	3349.566650	1645.201538	27.210882
755.680725	919.310425	3370.046387	1538.252075	25.255339
755.997498	985.300537	3317.709229	1556.456177	24.487803
756.314148	978.473938	3308.607178	1599.691162	26.660158
756.630737	976.198425	3390.525879	1592.864502	25.541941
756.947327	998.953613	3356.393066	1604.242188	25.675678
757.263855	980.749451	3194.831299	1570.109375	26.618706
757.580261	1010.331238	3322.260254	1597.415649	25.393705
757.896729	996.678101	3324.535889	1561.007324	24.242426
758.213074	971.647400	3502.026611	1611.068726	25.269783
758.529419	1017.157776	3440.587402	1574.660400	23.004696
758.845642	971.647400	3436.036377	1574.660400	24.469069
759.161865	1046.739624	3547.536865	1524.598877	19.108276
759.478149	1010.331238	3445.138428	1601.966675	24.299068
759.794189	957.994263	3542.985840	1642.926025	26.496479
760.110229	987.576050	3529.332764	1661.130127	26.499548
760.426270	960.269775	3504.302002	1617.895264	25.849731
760.742249	978.473938	3413.281250	1574.660400	24.485981
761.058105	992.127075	3556.638916	1713.467163	28.127775
761.374023	971.647400	3568.016602	1613.344238	24.715162
761.689819	976.198425	3524.781738	1597.415649	24.375002
762.005554	1037.637451	3558.914551	1647.477051	24.187727
762.321289	932.963501	3561.189941	1679.334351	28.398270
762.636902	967.096313	3549.812500	1665.681274	27.048458
762.952515	1021.708862	3634.006836	1724.844727	26.916374
763.268127	937.514587	3686.343750	1645.201538	25.745033
763.583618	983.024963	3761.435791	1656.579102	24.242424
763.899048	992.127075	4152.825684	1856.824951	27.357807
764.214478	1019.433350	4612.480469	1997.907227	27.232426
764.529785	919.310425	4778.593750	1915.988525	25.825472
764.845093	964.820801	5006.145996	2011.560425	25.900900
765.160400	978.473938	4874.165527	1950.121338	24.941589
765.475586	964.820801	4874.165527	1968.325439	25.669382
765.790771	980.749451	4612.480469	1972.876587	27.318300
766.105835	973.922913	4434.990234	1895.508789	26.627216
766.420837	951.167725	4116.416992	1743.048950	25.017973
766.735840	935.239075	4082.284424	1824.967651	28.271870
767.050842	969.371887	3822.875000	1793.110352	28.867620
767.365662	1023.984375	3852.456787	1758.977539	25.985516
767.680542	992.127075	3643.108887	1738.497925	28.154505
767.995300	926.136963	3483.822266	1752.151001	32.295376
768.309998	969.371887	3520.230713	1681.609863	27.921497
768.624817	987.576050	3467.893799	1681.609863	27.981647
768.939392	951.167725	3506.577637	1661.130127	27.782721
769.254028	996.678101	3272.198975	1649.752563	28.699997
769.568481	969.371887	3281.301025	1647.477051	29.330706
769.882935	921.585938	3360.944336	1558.731689	26.119398
770.197388	992.127075	3274.474365	1608.793213	27.018946
770.511841	871.524475	3183.453613	1620.170776	32.381886
770.826172	923.861450	3183.453613	1506.394775	25.780462
771.140442	980.749451	3188.004639	1510.945801	24.020618
771.454651	989.851563	3185.729004	1476.812988	22.176167
771.768860	937.514587	3035.544678	1513.221313	27.440348
772.082886	992.127075	3172.075928	1572.384888	26.617956
772.397034	994.402588	3046.922363	1499.568237	24.611975
772.711060	935.239075	2994.585449	1513.221313	28.066294
773.025024	996.678101	3028.718262	1540.527588	26.763718
773.338928	919.310425	3062.851074	1599.691162	31.740978
773.652771	973.922913	3081.055176	1558.731689	27.753777
773.966614	1001.229126	2942.248291	1524.598877	26.963657
774.280457	971.647400	2962.728027	1583.762451	30.742857
774.594116	976.198425	2914.942139	1563.282837	30.281694
774.907776	978.473938	2928.595215	1499.568237	26.721123
775.221375	889.728638	2917.217773	1522.323364	31.200893
775.534912	960.269775	2965.003662	1533.701050	28.603861
775.848450	939.790100	2962.728027	1488.190552	27.109108
776.161926	1023.984375	2889.911377	1495.017212	25.243904
776.475342	939.790100	2871.707275	1542.803101	31.213190
776.788696	998.953613	2896.738037	1545.078613	28.776978
777.101990	937.514587	2860.329590	1499.568237	29.230772
777.415283	989.851563	2798.890625	1465.435425	26.289309
777.728516	926.136963	2812.543701	1474.537476	29.071171
778.041626	951.167725	2883.084961	1429.027100	24.734982
778.354736	910.208313	2794.339600	1456.333252	28.985502
778.667725	914.759338	2807.992676	1410.822876	26.201921
778.980774	971.647400	2773.859863	1515.496826	30.176765
779.293640	994.402588	2767.033203	1406.271851	23.234917
779.606567	967.096313	2803.441650	1463.159912	27.013634
779.919434	935.239075	2771.584229	1472.261963	29.244114
780.232239	914.759338	2714.696289	1429.027100	28.571430
780.544983	923.861450	2835.298828	1474.537476	28.809525
780.857666	953.443237	2817.094727	1520.047852	30.402927
781.170227	932.963501	2653.257324	1506.394775	33.333332
781.482849	901.106262	2771.584229	1433.578125	28.467154
781.795410	964.820801	2807.992676	1469.986450	27.407410
782.107910	957.994263	2676.012451	1458.608887	29.139076
782.420288	914.759338	2628.226563	1394.894287	28.021250
782.732666	1005.780212	2694.216553	1385.792114	22.506737
783.044983	1026.259888	2612.297852	1410.822876	24.246771
783.357300	1017.157776	2605.471436	1388.067749	23.352438
783.669495	1083.147949	2678.288086	1317.526489	14.693289
783.981689	942.065613	2707.869873	1353.934937	23.324745
784.293762	1001.229126	2632.777588	1431.302612	26.359835
784.605835	1046.739624	2569.062988	1376.690063	21.674137
784.917908	1035.361938	2666.910400	1383.516602	21.338911
785.229858	978.473938	2532.654541	1363.036987	24.743780
785.541748	935.239075	2459.837891	1401.720825	30.597015
785.853577	942.065613	2582.716064	1333.455200	23.855759
786.165405	1030.810913	2523.552490	1360.761475	22.103662
786.477173	1021.708862	2537.205811	1353.934937	21.921923
786.788879	989.851563	2521.277100	1306.148926	20.653788
787.100525	971.647400	2530.379150	1344.832764	23.941605
787.412109	928.412476	2478.042236	1438.129150	32.892803
787.723694	898.830688	2450.735840	1390.343262	31.671560
788.035156	948.892151	2478.042236	1385.792114	28.571423
788.346558	951.167725	2612.297852	1506.394775	33.424656
788.658081	960.269775	2807.992676	1465.435425	27.339903
788.969360	944.341125	2685.114502	1397.169800	26.013073
789.280640	1014.882263	2707.869873	1415.373901	23.655912
789.591919	946.616638	2748.829102	1292.495850	19.191923
789.903076	953.443237	2814.819336	1422.200562	25.183374
790.214172	973.922913	2753.380127	1460.884399	27.365730
790.525269	964.820801	2662.359375	1422.200562	26.943703
790.836365	973.922913	2682.839111	1440.404663	27.296934
791.147339	948.892151	2557.685303	1338.006226	24.186705
791.458191	1014.882263	2537.205811	1360.761475	22.720480
791.769104	994.402588	2516.726074	1353.934937	23.617342
792.079895	1026.259888	2455.286865	1504.119263	33.439491
792.390686	1035.361938	2380.194824	1410.822876	27.918779
792.701416	1028.535400	2334.684326	1440.404663	31.533102
793.012085	939.790100	2402.949951	1401.720825	31.570761
793.322693	937.514587	2443.909424	1335.730713	26.435043
793.633240	967.096313	2453.011475	1369.863525	27.105667
793.943787	980.749451	2400.674561	1351.659302	26.121790
794.254272	953.443237	2357.439453	1340.281738	27.552673
794.564636	1012.606750	2375.643799	1297.046875	20.868113
794.875000	939.790100	2357.439453	1344.832764	28.571426
795.185303	1026.259888	2414.327637	1335.730713	22.295080
795.495544	1037.637451	2325.582275	1272.016113	18.197880
795.805786	985.300537	2466.664551	1315.250977	22.273420
796.115906	998.953613	2418.878662	1358.485962	25.320517
796.426025	928.412476	2327.857666	1367.588013	31.382118
796.736023	987.576050	2421.154053	1360.761475	26.031750
797.045959	935.239075	2434.807373	1331.179688	26.403639
797.355896	985.300537	2596.369141	1351.659302	22.740110
797.665833	944.341125	2437.082764	1340.281738	26.524389
797.975708	967.096313	2514.450439	1385.792114	27.058823
798.285461	1003.504700	2491.695313	1406.271851	27.064217
798.595154	921.585938	2503.072998	1406.271851	30.647478
798.904846	955.718750	2487.144287	1369.863525	27.043089
799.214478	1026.259888	2352.888428	1360.761475	25.214413
799.524109	953.443237	2471.215576	1390.343262	28.785610
799.833557	887.453125	2414.327637	1349.383789	30.253347
800.143005	998.953613	2396.123291	1369.863525	26.547235
800.452393	992.127075	2368.817139	1340.281738	25.289255
800.761780	976.198425	2359.715088	1372.139038	28.618422
801.071106	1023.984375	2366.541748	1401.720825	28.135592
801.380371	923.861450	2261.867676	1272.016113	26.020407
801.689575	957.994263	2230.010498	1306.148926	27.370300
801.998718	951.167725	2243.663574	1351.659302	30.985909
802.307800	946.616638	2323.306641	1324.353149	27.438025
802.616882	987.576050	2261.867676	1326.628662	26.607143
802.925903	1021.708862	2250.489990	1212.852539	15.555552
803.234863	932.963501	2141.265137	1256.087524	26.742001
803.543701	1023.984375	2268.694336	1328.904175	24.497257
803.852539	955.718750	2159.469238	1331.179688	31.190928
804.161316	967.096313	2141.265137	1335.730713	31.395350
804.470032	957.994263	2202.704102	1274.291626	25.411333
804.778809	1008.055725	2280.071777	1306.148926	23.434704
805.087341	923.861450	2175.397949	1315.250977	31.272722
805.395935	1012.606750	2195.877686	1306.148926	24.807688
805.704468	964.820801	2173.122314	1328.904175	30.131832
806.012939	964.820801	2293.724854	1265.189575	22.602743
806.321350	962.545288	2261.867676	1381.241089	32.224167
806.629761	964.820801	2273.245361	1315.250977	26.782604
806.938049	889.728638	2341.510986	1333.455200	30.564262
807.246277	1014.882263	2227.734863	1308.424438	24.202627
807.554504	992.127075	2204.979736	1269.740601	22.889303
807.862671	971.647400	2234.561523	1315.250977	27.207201
808.170715	894.279663	2314.204590	1276.567139	26.923077
808.478821	944.341125	2113.958740	1242.434326	25.486380
808.786804	1008.055725	2157.193604	1399.445313	34.059410
809.094727	989.851563	2184.500000	1365.312500	31.428572
809.402649	1003.504700	2259.592041	1278.842651	21.920286
809.710510	1037.637451	2095.754639	1308.424438	25.591398
810.018311	983.024963	2095.754639	1303.873413	28.834356
810.326050	1008.055725	2027.489014	1208.301514	19.642853
810.633667	1012.606750	2143.540527	1187.821899	15.492962
810.941345	1021.708862	2111.683350	1276.567139	23.382040
811.248901	960.269775	2029.764526	1326.628662	34.255325
811.556396	960.269775	2034.315552	1262.914063	28.177969
811.863892	935.239075	2054.795166	1292.495850	31.910572
812.171326	944.341125	2043.417725	1324.353149	34.575569
812.478699	967.096313	2036.591064	1278.842651	29.148935
812.786011	953.443237	2036.591064	1240.158813	26.470587
813.093262	921.585938	2027.489014	1221.954712	27.160498
813.400391	921.585938	2123.060791	1253.812012	27.651522
813.707642	939.790100	2018.386963	1287.944824	32.278484
814.014709	944.341125	2059.346436	1244.709839	26.938768
814.321716	1026.259888	2077.550537	1231.056763	19.480518
814.628723	955.718750	2154.918213	1281.118164	27.134720
814.935669	1037.637451	2011.560425	1265.189575	23.364489
815.242554	1010.331238	1970.601074	1365.312500	36.966824
815.549438	978.473938	2041.142212	1338.006226	33.832977
815.856201	948.892151	1991.080688	1201.474976	24.235811
816.162964	1012.606750	2022.937988	1219.679199	20.495501
816.469604	1001.229126	2084.376953	1221.954712	20.378159
816.776184	878.351013	2020.662476	1262.914063	33.665340
817.082825	964.820801	2127.612061	1237.883301	23.483364
817.389343	955.718750	2041.142212	1249.260864	27.044018
817.695801	866.973450	2059.346436	1267.465088	33.587780
818.002197	1037.637451	2075.274902	1206.026001	16.228071
818.308533	1033.086426	2070.723877	1340.281738	29.605265
818.614868	1023.984375	2166.295898	1262.914063	20.916334
818.921143	935.239075	2116.234375	1231.056763	25.048166
819.227356	960.269775	2061.621826	1287.944824	29.752071
819.533447	919.310425	2054.795166	1310.699951	34.468937
819.839539	948.892151	2152.642578	1258.363037	25.708889
820.145569	917.034912	2164.020264	1267.465088	28.102188
820.451538	969.371887	2318.755615	1333.455200	26.981449
820.757568	1026.259888	2496.246338	1367.588013	23.219814
821.063416	957.994263	2650.981689	1463.159912	29.838713
821.369263	969.371887	2721.522949	1460.884399	28.051947
821.675049	946.616638	2860.329590	1538.252075	30.915581
821.980713	946.616638	3001.411865	1472.261963	25.581398
822.286438	894.279663	3342.739990	1620.170776	29.646839
822.592102	951.167725	4150.549805	1786.283813	26.102419
822.897583	971.647400	6237.202637	2409.776611	27.312014
823.203125	976.198425	8794.887695	3147.045166	27.764841
823.508545	946.616638	10378.650391	3681.792725	28.998793
823.813965	894.279663	10824.652344	3743.231689	28.689276
824.119263	996.678101	9841.627930	3451.965088	27.759197
824.424622	976.198425	8301.099609	3128.841064	29.388008
824.729858	985.300537	6979.022461	2807.992676	30.410023
825.035095	989.851563	6162.110352	2407.500977	27.408710
825.340149	937.514587	5295.136719	2323.306641	31.801565
825.645264	994.402588	4894.645020	2050.244141	27.071178
825.950256	928.412476	4541.939453	2011.560425	29.974813
826.255310	980.749451	4271.152344	2054.795166	32.641769
826.560242	1055.841675	4016.294189	1859.100464	27.132973
826.865112	973.922913	3743.231689	1845.447388	31.470829
827.169922	1026.259888	3681.792725	1806.763550	29.391603
827.474670	960.269775	3734.129639	1772.630737	29.286301
827.779419	983.024963	4289.356934	1929.641602	28.630417
828.084045	987.576050	4744.460938	2045.693237	28.164749
828.388672	969.371887	5288.310547	2250.489990	29.662802
828.693176	955.718750	5019.798828	2216.357178	31.019035
828.997681	971.647400	4548.766113	2002.458252	28.816792
829.302124	1042.188477	4050.427002	1966.049927	30.711044
829.606567	973.922913	3538.434814	1772.630737	31.144632
829.910828	953.443237	3306.331787	1572.384888	26.305607
830.215149	1071.770264	3017.340576	1515.496826	22.807018
830.519348	983.024963	2883.084961	1551.905151	29.940117
830.823547	901.106262	2826.196777	1467.710938	29.432625
831.127686	957.994263	2573.614014	1499.568237	33.521130
831.431763	998.953613	2512.175049	1397.169800	26.315790
831.735779	1033.086426	2261.867676	1306.148926	22.222221
832.039734	1012.606750	2266.418701	1338.006226	25.952812
832.343628	1003.504700	2125.336426	1378.965576	33.468555
832.647461	1012.606750	2157.193604	1249.260864	20.675941
832.951233	1014.882263	2239.112549	1292.495850	22.676582
833.255127	1046.739624	2143.540527	1335.730713	26.348545
833.558777	973.922913	2239.112549	1251.536499	21.942448
833.862366	1019.433350	2437.082764	1338.006226	22.471909
834.165955	957.994263	2637.328613	1485.915039	31.436312
834.469482	998.953613	2946.799316	1524.598877	26.985981
834.773010	980.749451	3397.352539	1704.365112	29.943506
835.076416	948.892151	3606.700439	1724.844727	29.195204
835.379822	957.994263	3549.812500	1768.079712	31.255487
835.683105	939.790100	3297.229736	1683.885376	31.563704
835.986389	1042.188477	2992.309814	1520.047852	24.504084
836.289612	976.198425	2771.584229	1531.425537	30.925226
836.592773	987.576050	2621.399902	1399.445313	25.208916
836.895874	957.994263	2519.001465	1449.506714	31.486879
837.198914	1001.229126	2407.500977	1372.139038	26.375406
837.501892	996.678101	2350.613037	1297.046875	22.184875
837.804871	866.973450	2275.520752	1399.445313	37.802906
838.107666	962.545288	2148.091553	1285.669312	27.255285
838.410583	1042.188477	2018.386963	1326.628662	29.137535
838.713379	969.371887	1929.641602	1196.923950	23.696682
839.016052	969.371887	1920.539551	1226.505737	27.033493
839.318787	983.024963	1852.273926	1260.638550	31.937178
839.621338	998.953613	1784.008301	1237.883301	30.434782
839.923889	1014.882263	1815.865601	1231.056763	26.988638
840.226440	1080.872437	1784.008301	1206.026001	17.799343
840.528931	1005.780212	1947.845825	1233.332275	24.154587
840.831299	976.198425	1988.805176	1308.424438	32.808987
841.133606	942.065613	2134.438477	1351.659302	34.351143
841.435913	942.065613	2084.376953	1285.669312	30.079691
841.738220	1008.055725	1925.090576	1240.158813	25.310171
842.040405	983.024963	1950.121338	1212.852539	23.764702
842.342529	1001.229126	1849.998413	1221.954712	26.005369
842.644592	923.861450	1872.753662	1217.403687	30.935257
842.946594	983.024963	1772.630737	1208.301514	28.530256
843.248596	928.412476	1777.181763	1130.933838	23.860590
843.550598	960.269775	1733.946899	1169.617676	27.058821
843.852478	969.371887	1708.916138	1171.893188	27.384609
844.154236	1044.463989	1702.089600	1194.648438	22.837378
844.455994	978.473938	1649.752563	1171.893188	28.813557
844.757690	967.096313	1624.721802	1137.760376	25.951559
845.059326	1046.739624	1645.201538	1140.035889	15.589340
845.360962	953.443237	1588.313477	1112.729614	25.089596
845.662476	914.759338	1488.190552	1105.903076	33.333332
845.963989	957.994263	1504.119263	1117.280762	29.166674
846.265381	951.167725	1558.731689	1130.933838	29.588015
846.566772	935.239075	1515.496826	1099.076538	28.235291
846.868042	912.483826	1465.435425	1035.361938	22.222219
847.169373	973.922913	1529.150024	1115.005249	25.409843
847.470581	923.861450	1517.772339	1137.760376	36.015324
847.771729	1017.157776	1481.364014	1153.689087	29.411779
848.072815	976.198425	1513.221313	1110.454102	24.999992
848.373901	992.127075	1551.905151	1083.147949	16.260172
848.674866	926.136963	1435.853638	1087.698975	31.696434
848.975891	942.065613	1401.720825	1115.005249	37.623772
849.276794	964.820801	1510.945801	1099.076538	24.583334
849.577637	960.269775	1581.486938	1058.117188	15.750919
849.878357	1003.504700	1451.782227	1051.290649	10.659903
850.179077	955.718750	1463.159912	1133.209351	34.977573
850.479736	987.576050	1417.649414	1092.250000	24.338627
850.780396	992.127075	1415.373901	1130.933838	32.795700
851.080994	1017.157776	1499.568237	1167.342163	31.132074
851.381470	1023.984375	1440.404663	1108.178589	20.218567
851.681946	951.167725	1410.822876	1151.413574	43.564365
851.982361	1019.433350	1403.996338	1101.352051	21.301764
852.282715	955.718750	1454.057739	1108.178589	30.593601
852.583008	962.545288	1351.659302	1183.270874	56.725170
852.883240	983.024963	1403.996338	1137.760376	36.756756
853.183411	930.687988	1454.057739	1110.454102	34.347824
853.483521	1005.780212	1415.373901	1087.698975	20.000006
853.783630	951.167725	1422.200562	1078.596802	27.053120
854.083679	1069.494751	1399.445313	1128.658325	17.931042
854.383667	962.545288	1390.343262	1046.739624	19.680864
854.683533	898.830688	1442.680176	1151.413574	46.443527
854.983337	976.198425	1363.036987	1021.708862	11.764710
855.283203	969.371887	1431.302612	1051.290649	17.733994
855.582886	971.647400	1467.710938	1126.382813	31.192659
855.882629	960.269775	1413.098389	1089.974487	28.643223
856.182312	994.402588	1401.720825	1033.086426	9.497203
856.481873	1014.882263	1426.751587	1021.708862	1.657467
856.781372	1037.637451	1390.343262	1135.484863	27.741934
857.080872	987.576050	1338.006226	1112.729614	35.714264
857.380310	935.239075	1376.690063	1064.943726	29.381439
857.679688	964.820801	1335.730713	1115.005249	40.490814
857.979004	973.922913	1367.588013	989.851563	4.046244
858.278259	935.239075	1360.761475	1092.250000	36.898392
858.577454	914.759338	1360.761475	985.300537	15.816337
858.876648	953.443237	1365.312500	1049.015137	23.204426
859.175720	960.269775	1417.649414	1083.147949	26.865685
859.474792	973.922913	1335.730713	1023.984375	13.836479
859.773743	1017.157776	1358.485962	1140.035889	35.999989
860.072693	1014.882263	1415.373901	1110.454102	23.863628
860.371521	1012.606750	1433.578125	1096.801025	20.000000
860.670349	987.576050	1315.250977	1051.290649	19.444454
860.969116	967.096313	1481.364014	992.127075	4.867263
861.267883	957.994263	1322.077637	1008.055725	13.750000
861.566589	946.616638	1285.669312	1049.015137	30.201355
861.865112	1014.882263	1422.200562	1037.637451	5.586586
862.163635	994.402588	1365.312500	1053.566162	15.950929
862.462158	1010.331238	1369.863525	1021.708862	3.164563
862.760620	964.820801	1394.894287	1046.739624	19.047634
863.059021	967.096313	1408.547363	1117.280762	34.020634
863.357361	1010.331238	1390.343262	1074.045776	16.766453
863.655640	1053.566162	1335.730713	1115.005249	21.774204
863.953857	910.208313	1365.312500	1037.637451	27.999992
864.251953	973.922913	1435.853638	1046.739624	15.763556
864.550110	980.749451	1344.832764	1092.250000	30.625010
864.848206	905.657288	1340.281738	1101.352051	45.026173
865.146179	1012.606750	1347.108276	1089.974487	23.129263
865.444092	980.749451	1287.944824	1037.637451	18.518509
865.741943	985.300537	1422.200562	1071.770264	19.791651
866.039795	976.198425	1349.383789	1080.872437	28.048800
866.337646	989.851563	1351.659302	1153.689087	45.283035
866.635376	996.678101	1435.853638	1069.494751	16.580307
866.933044	969.371887	1435.853638	998.953613	6.341454
867.230652	994.402588	1426.751587	1051.290649	13.157903
867.528198	937.514587	1333.455200	1076.321289	35.057453
867.825745	962.545288	1406.271851	1076.321289	25.641016
868.123230	983.024963	1333.455200	1101.352051	33.766232
868.420593	985.300537	1338.006226	1051.290649	18.709682
868.717896	926.136963	1449.506714	1071.770264	27.826082
869.015198	953.443237	1365.312500	1074.045776	29.281754
869.312439	896.555176	1312.975464	1010.331238	27.322411
869.609619	889.728638	1374.414551	1115.005249	46.478886
869.906738	942.065613	1369.863525	1092.250000	35.106384
870.203796	946.616638	1415.373901	1049.015137	21.844675
870.500854	964.820801	1376.690063	1146.862427	44.198887
870.797791	892.004150	1324.353149	1026.259888	31.052631
871.094666	973.922913	1394.894287	1017.157776	10.270262
871.391602	1010.331238	1342.557251	1087.698975	23.287682
871.688293	992.127075	1328.904175	1085.423462	27.702711
871.985107	969.371887	1358.485962	1142.311401	44.444424
872.281738	994.402588	1358.485962	1094.525513	27.500000
872.578369	998.953613	1347.108276	1008.055725	2.614388
872.874939	907.932800	1381.241089	1080.872437	36.538475
873.171509	910.208313	1388.067749	1080.872437	35.714294
873.467957	957.994263	1317.526489	1064.943726	29.746836
873.764343	919.310425	1365.312500	1042.188477	27.551004
874.060669	937.514587	1326.628662	1060.392700	31.578943
874.356995	953.443237	1338.006226	1062.668213	28.402363
874.653198	1005.780212	1378.965576	1140.035889	35.975601
874.949463	907.932800	1338.006226	1117.280762	48.677261
875.245544	1017.157776	1358.485962	1055.841675	11.333344
875.541626	973.922913	1417.649414	1092.250000	26.666672
875.837646	985.300537	1317.526489	1110.454102	37.671219
876.133606	960.269775	1365.312500	1190.097412	56.741577
876.429565	971.647400	1353.934937	1049.015137	20.238100
876.725403	994.402588	1317.526489	992.127075	-0.704223
877.021179	994.402588	1403.996338	1074.045776	19.444435
877.316956	962.545288	1403.996338	1071.770264	24.742262
877.612610	919.310425	1365.312500	1128.658325	46.938774
877.908203	987.576050	1526.874512	1151.413574	30.379749
878.203857	951.167725	1397.169800	1010.331238	13.265300
878.499390	953.443237	1419.924927	1108.178589	33.170723
878.794800	989.851563	1381.241089	1117.280762	32.558151
879.090271	987.576050	1372.139038	1069.494751	21.301764
879.385559	921.585938	1435.853638	1064.943726	27.876102
879.680847	998.953613	1403.996338	1064.943726	16.292135
879.976196	1005.780212	1483.639526	1151.413574	30.476200
880.271301	957.994263	1515.496826	1151.413574	34.693886
880.566467	992.127075	1556.456177	1137.760376	25.806448
880.861572	994.402588	1624.721802	1137.760376	22.743681
881.156555	869.248962	1820.416626	1169.617676	31.578945
881.451477	973.922913	2004.733887	1299.322388	31.567326
881.746460	1019.433350	2703.318604	1458.608887	26.081085
882.041321	921.585938	3431.485352	1677.058838	30.099728
882.336121	905.657288	4384.928711	1929.641602	29.430998
882.630798	932.963501	4644.337891	2107.132324	31.637033
882.925537	914.759338	4803.624512	2043.417725	29.022821
883.220215	1017.157776	4485.051270	1954.672363	27.034122
883.514771	910.208313	4068.631104	1843.171875	29.538906
883.809326	907.932800	3690.894775	1640.650513	26.328701
884.103760	942.065613	3458.791504	1620.170776	26.943943
884.398132	917.034912	3217.586426	1551.905151	27.596437
884.692505	889.728638	3106.085938	1492.741699	27.207392
884.986816	946.616638	2899.013428	1533.701050	30.069935
885.281067	1001.229126	2714.696289	1447.231201	26.029217
885.575256	1012.606750	2514.450439	1349.383789	22.424240
885.869385	1014.882263	2371.092773	1363.036987	25.671143
886.163452	989.851563	2118.509766	1303.873413	27.822582
886.457458	1019.433350	2011.560425	1376.690063	36.009171
886.751465	1046.739624	1861.375977	1183.270874	16.759779
887.045410	962.545288	1665.681274	1158.240112	27.831718
887.339233	962.545288	1647.477051	1196.923950	34.219273
887.632996	971.647400	1613.344238	1203.750488	36.170208
887.926758	960.269775	1520.047852	1169.617676	37.398373
888.220398	1042.188477	1592.864502	1119.556274	14.049603
888.514099	1012.606750	1506.394775	1112.729614	20.276487
888.807678	1010.331238	1501.843750	1055.841675	9.259263
889.101196	932.963501	1510.945801	1160.515625	39.370087
889.394653	962.545288	1508.670288	1112.729614	27.499990
889.688049	978.473938	1538.252075	1071.770264	16.666660
889.981384	1010.331238	1460.884399	1010.331238	0.000000
890.274719	1017.157776	1413.098389	1096.801025	20.114948
890.567932	948.892151	1388.067749	1051.290649	23.316072
>>>>>End Processed Spectral Data<<<<<
