Jaz Data File
++++++++++++++++++++++++++++++++++++
Date: Wed Feb 07 06:51:14 2024
User: jaz
Dark Spectrum Present: Yes
Reference Spectrum Present: Yes
Processed Spectrum Present: Yes
Spectrometers: JAZA3692
Integration Time (usec): 42900 (JAZA3692)
Spectra Averaged: 1 (JAZA3692)
Boxcar Smoothing: 0 (JAZA3692)
Correct for Electrical Dark: No (JAZA3692)
Strobe/Lamp Enabled: Yes (JAZA3692)
Correct for Detector Non-linearity: No (JAZA3692)
Correct for Stray Light: No (JAZA3692)
Number of Pixels in Processed Spectrum: 2048
>>>>>Begin Processed Spectral Data<<<<<
W	D	R	S	P
190.244385	0.000000	0.000000	0.000000	0.000000
190.627136	0.000000	0.000000	0.000000	0.000000
191.009842	907.932800	948.892151	937.514587	72.222305
191.392532	985.300537	1028.535400	926.136963	-136.842285
191.775177	917.034912	967.096313	923.861450	13.636331
192.157791	989.851563	903.381775	962.545288	31.578978
192.540390	992.127075	917.034912	1042.188477	-66.666611
192.922943	905.657288	1001.229126	935.239075	30.952410
193.305481	1003.504700	1035.361938	951.167725	-164.285980
193.687958	1010.331238	1023.984375	992.127075	-133.333191
194.070419	948.892151	1019.433350	983.024963	48.387062
194.452866	1064.943726	928.412476	1010.331238	39.999992
194.835251	1030.810913	1012.606750	932.963501	537.500183
195.217621	1008.055725	976.198425	985.300537	71.428490
195.599960	1039.912964	1003.504700	973.922913	181.250198
195.982254	1080.872437	976.198425	939.790100	134.782578
196.364517	1033.086426	971.647400	994.402588	62.962975
196.746750	962.545288	1003.504700	998.953613	88.888786
197.128952	1014.882263	994.402588	987.576050	133.333237
197.511139	1067.219238	1001.229126	1010.331238	86.206856
197.893280	992.127075	1010.331238	1021.708862	162.500122
198.275391	998.953613	935.239075	989.851563	14.285673
198.657471	1001.229126	1003.504700	964.820801	-1599.962402
199.039520	1049.015137	967.096313	1014.882263	41.666702
199.421539	948.892151	1037.637451	935.239075	-15.384562
199.803513	967.096313	973.922913	976.198425	133.333038
200.185471	1001.229126	948.892151	1008.055725	-13.043550
200.567383	1010.331238	1010.331238	994.402588	0.000000
200.949265	989.851563	989.851563	994.402588	0.000000
201.331131	930.687988	1044.463989	917.034912	-11.999961
201.712967	946.616638	1037.637451	937.514587	-9.999967
202.094742	976.198425	1030.810913	1008.055725	58.333363
202.476517	980.749451	1026.259888	980.749451	0.000000
202.858231	957.994263	1055.841675	992.127075	34.883717
203.239944	969.371887	994.402588	976.198425	27.272661
203.621582	955.718750	935.239075	1005.780212	-244.444611
204.003235	937.514587	969.371887	1010.331238	228.571320
204.384827	935.239075	1019.433350	996.678101	72.972923
204.766388	937.514587	1017.157776	969.371887	40.000031
205.147934	985.300537	1039.912964	983.024963	-4.166769
205.529449	1021.708862	953.443237	946.616638	110.000053
205.910904	976.198425	1044.463989	905.657288	-103.333412
206.292343	948.892151	1019.433350	885.177612	-90.322449
206.673767	930.687988	992.127075	919.310425	-18.518444
207.055115	998.953613	980.749451	914.759338	462.500122
207.436462	1010.331238	1012.606750	901.106262	-4800.016113
207.817780	1014.882263	1069.494751	939.790100	-137.499985
208.199051	967.096313	976.198425	910.208313	-624.997803
208.580307	994.402588	983.024963	1019.433350	-219.999893
208.961517	928.412476	971.647400	976.198425	110.526268
209.342712	983.024963	987.576050	944.341125	-849.991272
209.723846	976.198425	989.851563	973.922913	-16.666592
210.104965	1096.801025	1069.494751	962.545288	491.666260
210.486069	955.718750	1074.045776	971.647400	13.461549
210.867111	985.300537	1044.463989	955.718750	-50.000103
211.248123	962.545288	1046.739624	983.024963	24.324291
211.629120	962.545288	998.953613	930.687988	-87.500038
212.010071	994.402588	1044.463989	987.576050	-13.636331
212.390991	951.167725	1026.259888	951.167725	0.000000
212.771881	983.024963	923.861450	983.024963	-0.000000
213.152756	962.545288	992.127075	1033.086426	238.461380
213.533569	962.545288	944.341125	969.371887	-37.500210
213.914368	930.687988	960.269775	953.443237	76.923172
214.295135	989.851563	985.300537	989.851563	-0.000000
214.675858	989.851563	928.412476	953.443237	59.259224
215.056549	978.473938	992.127075	866.973450	-816.665710
215.437225	1019.433350	978.473938	992.127075	66.666664
215.817841	978.473938	1071.770264	976.198425	-2.439016
216.198441	1010.331238	985.300537	928.412476	327.273163
216.579025	928.412476	1028.535400	967.096313	38.636345
216.959549	1053.566162	1017.157776	960.269775	256.249725
217.340057	973.922913	1012.606750	951.167725	-58.823502
217.720535	1003.504700	1008.055725	1021.708862	400.001343
218.100967	1003.504700	1001.229126	957.994263	1999.954346
218.481369	994.402588	987.576050	944.341125	733.335999
218.861740	1003.504700	1067.219238	955.718750	-75.000069
219.242065	955.718750	978.473938	1019.433350	280.000336
219.622391	969.371887	1019.433350	973.922913	9.090876
220.002670	994.402588	1012.606750	948.892151	-250.000168
220.382919	976.198425	962.545288	955.718750	149.999771
220.763123	932.963501	996.678101	1012.606750	125.000000
221.143295	937.514587	1014.882263	917.034912	-26.470583
221.523453	992.127075	1005.780212	960.269775	-233.333191
221.903549	957.994263	1003.504700	944.341125	-30.000013
222.283630	1046.739624	1023.984375	962.545288	369.999634
222.663696	976.198425	1035.361938	926.136963	-84.615433
223.043701	923.861450	978.473938	942.065613	33.333332
223.423676	978.473938	1033.086426	957.994263	-37.499985
223.803635	967.096313	1012.606750	887.453125	-174.999832
224.183548	928.412476	996.678101	967.096313	56.666641
224.563431	962.545288	1014.882263	980.749451	34.782604
224.943283	946.616638	1008.055725	955.718750	14.814856
225.323105	937.514587	1058.117188	1042.188477	86.792397
225.702881	1008.055725	1033.086426	921.585938	-345.454926
226.082642	919.310425	1026.259888	971.647400	48.936172
226.462357	1017.157776	1035.361938	942.065613	-412.499969
226.842041	998.953613	967.096313	944.341125	171.428482
227.221695	926.136963	1019.433350	976.198425	53.658524
227.601318	937.514587	1021.708862	951.167725	16.216230
227.980911	989.851563	996.678101	987.576050	-33.333332
228.360474	976.198425	1021.708862	912.483826	-139.999969
228.739990	1028.535400	1135.484863	1003.504700	-23.404232
229.119476	971.647400	1124.107300	998.953613	17.910423
229.498932	1005.780212	1130.933838	1044.463989	30.909035
229.878372	996.678101	1187.821899	939.790100	-29.761887
230.257736	1008.055725	1212.852539	969.371887	-18.888887
230.637115	980.749451	1203.750488	973.922913	-3.061213
231.016449	992.127075	1128.658325	942.065613	-36.666668
231.395737	903.381775	1121.831787	971.647400	31.249998
231.774994	937.514587	1014.882263	1051.290649	147.058914
232.154221	964.820801	1146.862427	1062.668213	53.750019
232.533417	937.514587	1146.862427	953.443237	7.608700
232.912582	917.034912	1167.342163	1033.086426	46.363625
233.291702	928.412476	1115.005249	960.269775	17.073170
233.670792	996.678101	1119.556274	1017.157776	16.666651
234.049866	907.932800	1133.209351	932.963501	11.111099
234.428894	957.994263	1176.444214	1017.157776	27.083326
234.807892	973.922913	1183.270874	1017.157776	20.652153
235.186874	985.300537	1133.209351	967.096313	-12.307734
235.565781	967.096313	1212.852539	1008.055725	16.666683
235.944687	1028.535400	1185.546387	921.585938	-68.115913
236.323547	948.892151	1256.087524	917.034912	-10.370351
236.702377	926.136963	1201.474976	912.483826	-4.958682
237.081177	980.749451	1174.168701	1008.055725	14.117661
237.459946	980.749451	1190.097412	955.718750	-11.956506
237.838669	942.065613	1165.066650	994.402588	23.469387
238.217361	928.412476	1256.087524	983.024963	16.666660
238.596039	994.402588	1208.301514	980.749451	-6.382986
238.974670	942.065613	1208.301514	944.341125	0.854698
239.353271	957.994263	1224.230225	980.749451	8.547000
239.731842	980.749451	1240.158813	983.024963	0.877190
240.110367	919.310425	1158.240112	944.341125	10.476178
240.488876	928.412476	1237.883301	923.861450	-1.470583
240.867340	964.820801	1253.812012	978.473938	4.724412
241.245789	1019.433350	1258.363037	1014.882263	-1.904781
241.624176	969.371887	1228.781250	964.820801	-1.754403
242.002548	957.994263	1467.710938	998.953613	8.035709
242.380890	1023.984375	1495.017212	989.851563	-7.246377
242.759186	1019.433350	1533.701050	1080.872437	11.946908
243.137451	932.963501	1592.864502	1039.912964	16.206896
243.515686	971.647400	1658.854614	1005.780212	4.966888
243.893890	964.820801	1658.854614	973.922913	1.311480
244.272049	967.096313	1517.772339	1010.331238	7.851245
244.650192	889.728638	1606.517700	973.922913	11.746033
245.028290	905.657288	1506.394775	1046.739624	23.484856
245.406357	960.269775	1492.741699	973.922913	2.564105
245.784393	955.718750	1447.231201	953.443237	-0.462961
246.162384	907.932800	1501.843750	967.096313	9.961680
246.540359	948.892151	1592.864502	1033.086426	13.074206
246.918289	955.718750	1615.619751	957.994263	0.344826
247.296204	989.851563	1756.702026	1003.504700	1.780417
247.674057	973.922913	2066.172852	994.402588	1.874999
248.051895	976.198425	2243.663574	1037.637451	4.847394
248.429703	948.892151	2352.888428	1064.943726	8.265803
248.807465	1010.331238	2336.959961	1044.463989	2.572894
249.185196	1019.433350	2095.754639	1089.974487	6.553911
249.562897	964.820801	1893.233276	973.922913	0.980395
249.940567	1001.229126	1840.896362	992.127075	-1.084007
250.318192	1021.708862	1779.457275	1003.504700	-2.402402
250.695801	994.402588	1649.752563	1028.535400	5.208333
251.073349	980.749451	1579.211426	976.198425	-0.760454
251.450882	955.718750	1501.843750	1030.810913	13.749995
251.828400	1053.566162	1524.598877	1044.463989	-1.932387
252.205872	987.576050	1565.558350	1008.055725	3.543305
252.583313	926.136963	1636.099487	989.851563	8.974361
252.960693	980.749451	1722.569214	998.953613	2.453987
253.338074	955.718750	1913.713013	983.024963	2.850353
253.715408	1019.433350	1845.447388	1058.117188	4.683194
254.092682	923.861450	1665.681274	1003.504700	10.736198
254.469955	989.851563	1654.303589	994.402588	0.684929
254.847198	937.514587	1574.660400	983.024963	7.142851
255.224365	1017.157776	1508.670288	996.678101	-4.166664
255.601563	910.208313	1506.394775	1030.810913	20.229008
255.978683	973.922913	1547.354126	1049.015137	13.095245
256.355743	976.198425	1499.568237	1039.912964	12.173904
256.732819	930.687988	1570.109375	1001.229126	11.032026
257.109894	944.341125	1549.629639	983.024963	6.390975
257.486877	1005.780212	1576.935913	1033.086426	4.780870
257.863831	1028.535400	1683.885376	1010.331238	-2.777777
258.240753	1008.055725	1672.507813	1010.331238	0.342465
258.617645	1017.157776	1692.987427	1037.637451	3.030301
258.994507	1003.504700	1799.937012	1019.433350	2.000000
259.371307	980.749451	1836.345337	1003.504700	2.659579
259.748108	985.300537	2125.336426	962.545288	-1.996012
260.124878	998.953613	2314.204590	1076.321289	5.882351
260.501617	898.830688	2500.797363	1074.045776	10.937499
260.878296	919.310425	2803.441650	1049.015137	6.884059
261.254944	951.167725	2889.911377	1085.423462	6.924883
261.631561	989.851563	2864.880615	1074.045776	4.490289
262.008179	946.616638	2521.277100	1083.147949	8.670525
262.384735	960.269775	2168.571289	1014.882263	4.519773
262.761261	973.922913	2018.386963	939.790100	-3.267974
263.137695	926.136963	2027.489014	1026.259888	9.090910
263.514191	928.412476	1934.192627	1019.433350	9.049778
263.890594	996.678101	1970.601074	992.127075	-0.467288
264.267029	944.341125	1909.161987	1008.055725	6.603775
264.643341	978.473938	1875.029175	1099.076538	13.451776
265.019653	942.065613	1845.447388	951.167725	1.007560
265.395935	992.127075	1831.794189	944.341125	-5.691059
265.772217	1017.157776	1863.651489	973.922913	-5.107523
266.148407	953.443237	1829.518677	910.208313	-4.935069
266.524597	992.127075	1970.601074	1023.984375	3.255815
266.900726	926.136963	2029.764526	1019.433350	8.453611
267.276855	967.096313	2004.733887	1037.637451	6.798244
267.652924	967.096313	2241.387939	957.994263	-0.714283
268.028992	953.443237	2168.571289	980.749451	2.247188
268.404999	955.718750	2118.509766	1005.780212	4.305285
268.781006	894.279663	2111.683350	946.616638	4.299065
269.156921	980.749451	2125.336426	1069.494751	7.753479
269.532837	973.922913	2170.846924	1128.658325	12.927755
269.908661	953.443237	2086.652588	1096.801025	12.650600
270.284546	892.004150	2143.540527	985.300537	7.454548
270.660339	1023.984375	2148.091553	1014.882263	-0.809719
271.036133	937.514587	2141.265137	962.545288	2.079393
271.411835	944.341125	2364.266113	1008.055725	4.487181
271.787537	969.371887	2448.460449	1030.810913	4.153843
272.163239	967.096313	2616.848877	1074.045776	6.482758
272.538849	1035.361938	2780.686523	1028.535400	-0.391133
272.914459	987.576050	2812.543701	1112.729614	6.857851
273.290070	980.749451	2632.777588	1064.943726	5.096419
273.665588	944.341125	2491.695313	1053.566162	7.058825
274.041046	996.678101	2537.205811	1128.658325	8.567208
274.416565	1010.331238	2441.633789	1058.117188	3.338634
274.791962	1005.780212	2389.296875	1071.770264	4.769733
275.167389	971.647400	2316.480225	921.585938	-3.722505
275.542755	983.024963	2402.949951	1053.566162	4.967952
275.918060	989.851563	2245.938965	1019.433350	2.355074
276.293365	1005.780212	2336.959961	1023.984375	1.367521
276.668640	976.198425	2475.766602	1049.015137	4.855845
277.043854	1023.984375	2489.419678	1085.423462	4.192549
277.419037	937.514587	2514.450439	1069.494751	8.369407
277.794189	964.820801	2439.358398	983.024963	1.234568
278.169312	971.647400	2491.695313	1001.229126	1.946105
278.544373	976.198425	2514.450439	1037.637451	3.994081
278.919464	930.687988	2509.899414	1062.668213	8.357350
279.294464	935.239075	2330.133301	1042.188477	7.667205
279.669464	985.300537	2459.837891	1003.504700	1.234568
280.044403	1012.606750	2380.194824	1017.157776	0.332777
280.419312	944.341125	2437.082764	1087.698975	9.603661
280.794189	1019.433350	2430.256104	1080.872437	4.354841
281.169037	1037.637451	2559.960938	1014.882263	-1.494767
281.543854	998.953613	2553.134277	1083.147949	5.417281
281.918671	980.749451	2589.542725	1076.321289	5.940592
282.293365	987.576050	2869.431641	1014.882263	1.451026
282.668091	926.136963	2878.533936	1055.841675	6.643358
283.042786	978.473938	3003.687500	1067.219238	4.382022
283.417419	967.096313	3005.962891	1062.668213	4.687501
283.792053	980.749451	2889.911377	1080.872437	5.244342
284.166595	973.922913	2937.697266	1096.801025	6.257242
284.541138	960.269775	2785.237549	1071.770264	6.109724
284.915619	998.953613	2939.972900	1014.882263	0.820633
285.290100	1055.841675	2921.768799	1103.627563	2.560973
285.664520	996.678101	2894.462402	1089.974487	4.916069
286.038940	930.687988	2935.421875	1067.219238	6.810442
286.413300	987.576050	3140.218750	1046.739624	2.748416
286.787628	896.555176	3165.249512	1133.209351	10.431293
287.161896	955.718750	3219.861816	1201.474976	10.854271
287.536194	1001.229126	3304.056152	1049.015137	2.075102
287.910400	987.576050	3137.943115	1058.117188	3.280423
288.284607	937.514587	3074.228516	1080.872437	6.709268
288.658752	955.718750	2935.421875	1064.943726	5.517240
289.032867	971.647400	2814.819336	1085.423462	6.172841
289.406921	1005.780212	2851.227539	1085.423462	4.315661
289.781006	912.483826	2853.503174	1121.831787	10.785465
290.154999	1008.055725	2878.533936	1128.658325	6.447688
290.529022	1003.504700	3169.800537	1099.076538	4.411763
290.902954	910.208313	3112.912354	1096.801025	8.471075
291.276825	1026.259888	3253.994629	1110.454102	3.779364
291.650757	985.300537	3331.362549	1112.729614	5.431616
292.024597	960.269775	3297.229736	1121.831787	6.913341
292.398407	962.545288	3265.372314	1044.463989	3.557310
292.772156	969.371887	3119.739014	1187.821899	10.158731
293.145905	978.473938	3115.187988	1089.974487	5.218318
293.519592	989.851563	2969.554688	1078.596802	4.482755
293.893280	1037.637451	3053.749023	1144.586914	5.304739
294.266907	917.034912	3110.636963	1192.372925	12.551867
294.640533	980.749451	3294.954102	1069.494751	3.834808
295.014069	978.473938	3249.443604	1128.658325	6.613227
295.387604	1001.229126	3547.536865	1096.801025	3.753352
295.761078	1019.433350	3588.496338	1151.413574	5.137290
296.134552	967.096313	3465.618164	1110.454102	5.737704
296.507996	967.096313	3547.536865	1135.484863	6.525574
296.881378	923.861450	3549.812500	1119.556274	7.452341
297.254730	939.790100	3729.578613	1155.964600	7.748777
297.628021	1028.535400	3988.988037	1110.454102	2.767101
298.001282	953.443237	4034.498291	1199.199463	7.976366
298.374573	1019.433350	4091.386475	1130.933838	3.629629
298.747803	1001.229126	3909.344727	1217.403687	7.433492
299.121002	998.953613	3747.782715	1083.147949	3.062916
299.494141	885.177612	3602.149414	1094.525513	7.705193
299.867188	1001.229126	3565.741211	1135.484863	5.235137
300.240265	1001.229126	3388.250488	1115.005249	4.766448
300.613312	969.371887	3367.770752	1115.005249	6.072107
300.986328	1026.259888	3345.015625	1010.331238	-0.686948
301.359314	987.576050	3203.933350	1142.311401	6.981516
301.732239	951.167725	3140.218750	1128.658325	8.108107
302.105103	921.585938	3265.372314	1112.729614	8.155337
302.477997	953.443237	3188.004639	1087.698975	6.008147
302.850830	1003.504700	3367.770752	1021.708862	0.769971
303.223602	1008.055725	3135.667725	1078.596802	3.315505
303.596375	1051.290649	3208.484375	1103.627563	2.426157
303.969116	973.922913	3071.953125	1083.147949	5.206075
304.341766	987.576050	3076.504150	1117.280762	6.209151
304.714478	980.749451	3156.147461	1126.382813	6.694562
305.087067	944.341125	3162.973877	1151.413574	9.333336
305.459656	989.851563	3144.769775	1101.352051	5.174233
305.832214	1003.504700	3172.075928	1160.515625	7.240294
306.204681	971.647400	3040.095703	1135.484863	7.920791
306.577148	907.932800	3056.024414	1096.801025	8.792373
306.949646	998.953613	3140.218750	1103.627563	4.888416
307.322021	921.585938	3167.524902	1033.086426	4.964538
307.694397	935.239075	3126.565674	1121.831787	8.515057
308.066742	1019.433350	3053.749023	1037.637451	0.894851
308.439026	980.749451	3324.535889	1071.770264	3.883494
308.811279	1001.229126	3217.586426	1083.147949	3.696102
309.183502	998.953613	3417.832275	1044.463989	1.881466
309.555695	946.616638	3481.546875	1115.005249	6.642732
309.927887	951.167725	3415.556641	1112.729614	6.555860
310.299988	1023.984375	3556.638916	1089.974487	2.605571
310.672058	942.065613	3499.750977	1071.770264	5.071173
311.044128	946.616638	3558.914551	1092.250000	5.574914
311.416168	914.759338	3654.486328	1023.984375	3.986712
311.788147	942.065613	3636.282227	1121.831787	6.672298
312.160065	967.096313	3615.802490	1105.903076	5.240550
312.531982	944.341125	3549.812500	1080.872437	5.240177
312.903870	992.127075	3433.760986	1130.933838	5.684995
313.275696	948.892151	3417.832275	1076.321289	5.161289
313.647491	1014.882263	3319.984863	1128.658325	4.935835
314.019318	1001.229126	3404.179199	1060.392700	2.462122
314.391022	1017.157776	3415.556641	1067.219238	2.087287
314.762726	1003.504700	3445.138428	1130.933838	5.219011
315.134369	989.851563	3563.465576	992.127075	0.088417
315.505981	937.514587	3699.996826	1030.810913	3.377264
315.877594	976.198425	3759.160400	1146.862427	6.132459
316.249146	1049.015137	3593.047363	1071.770264	0.894451
316.620636	928.412476	3467.893799	1046.739624	4.659501
316.992157	973.922913	3276.750000	1055.841675	3.557313
317.363586	896.555176	3290.403076	1115.005249	9.125479
317.735016	985.300537	3256.270264	1087.698975	4.509018
318.106354	960.269775	3304.056152	1005.780212	1.941748
318.477722	1026.259888	3347.291016	1074.045776	2.058821
318.849060	919.310425	3253.994629	964.820801	1.949316
319.220306	910.208313	3244.892578	1019.433350	4.678364
319.591522	1014.882263	3442.863037	1087.698975	2.999065
319.962738	985.300537	3454.240479	1103.627563	4.792625
320.333923	944.341125	3304.056152	1051.290649	4.532307
320.705017	1042.188477	3310.882813	1080.872437	1.705120
321.076111	998.953613	3329.086914	1117.280762	5.078128
321.447144	978.473938	3283.576416	1035.361938	2.467916
321.818176	914.759338	3222.137451	1010.331238	4.142013
322.189178	967.096313	3201.657715	1055.841675	3.971489
322.560120	1005.780212	3326.811523	1019.433350	0.588236
322.931030	962.545288	3299.505127	1062.668213	4.284324
323.301910	985.300537	3411.005615	1069.494751	3.470917
323.672729	1030.810913	3679.517090	1039.912964	0.343641
324.043549	980.749451	3795.568604	1135.484863	5.497171
324.414337	983.024963	3918.446777	1069.494751	2.945736
324.785095	976.198425	4132.345703	1049.015137	2.307139
325.155792	985.300537	4089.110840	1026.259888	1.319647
325.526428	910.208313	4109.590332	1017.157776	3.342816
325.897034	987.576050	3968.508301	1108.178589	4.045800
326.267670	946.616638	3893.416016	1037.637451	3.088803
326.638184	889.728638	4009.467773	1074.045776	5.908094
327.008728	1028.535400	4068.631104	1121.831787	3.068863
327.379211	1014.882263	4048.151611	1105.903076	3.000750
327.749634	937.514587	3927.548828	1089.974487	5.098935
328.120026	978.473938	3891.140625	1067.219238	3.046875
328.490417	937.514587	3811.497314	1074.045776	4.750592
328.860748	987.576050	3659.037354	1085.423462	3.662692
329.231079	946.616638	3654.486328	1055.841675	4.033615
329.601318	973.922913	3834.252441	1092.250000	4.136834
329.971558	942.065613	3786.466553	1046.739624	3.680002
330.341736	969.371887	3754.609375	1112.729614	5.147056
330.711914	971.647400	3690.894775	1055.841675	3.096235
331.082062	957.994263	3756.884766	1028.535400	2.520325
331.452148	973.922913	3709.098877	1042.188477	2.495838
331.822174	1021.708862	3634.006836	1042.188477	0.783969
332.192200	926.136963	3877.487549	1042.188477	3.932149
332.562134	989.851563	3872.936523	1037.637451	1.657457
332.932129	996.678101	4009.467773	1051.290649	1.812690
333.302063	894.279663	4077.733398	1017.157776	3.859900
333.671906	953.443237	4145.999023	1110.454102	4.918031
334.041718	930.687988	4152.825684	1135.484863	6.355932
334.411499	967.096313	4216.540039	1117.280762	4.621851
334.781281	992.127075	4307.561035	1124.107300	3.980783
335.151001	1008.055725	4230.193359	1169.617676	5.014123
335.520721	1010.331238	3986.712402	1092.250000	2.752294
335.890350	944.341125	4216.540039	1046.739624	3.129348
336.259979	926.136963	4221.091309	1064.943726	4.212707
336.629547	930.687988	4266.601563	1117.280762	5.593453
336.999084	948.892151	4328.040527	1130.933838	5.387206
337.368622	912.483826	4150.549805	1019.433350	3.302883
337.738098	878.351013	4303.009766	1074.045776	5.714285
338.107513	951.167725	4243.846191	1064.943726	3.455424
338.476898	944.341125	4252.948242	1130.933838	5.639615
338.846252	967.096313	4419.061523	1124.107300	4.548452
339.215576	1055.841675	4425.888184	1092.250000	1.080351
339.584869	971.647400	4189.233887	1103.627563	4.101838
339.954132	944.341125	4186.958496	1055.841675	3.438597
340.323334	1028.535400	4155.101074	1046.739624	0.582243
340.692505	926.136963	3950.304199	1089.974487	5.417608
341.061646	960.269775	3977.610352	1083.147949	4.072400
341.430786	967.096313	4173.305176	1101.352051	4.187367
341.799896	926.136963	4127.794922	1021.708862	2.985075
342.168915	876.075500	4373.550781	1133.209351	7.351985
342.537903	937.514587	4428.163574	1074.045776	3.911341
342.906830	1026.259888	4478.225098	1158.240112	3.823336
343.275757	1001.229126	4496.429199	1076.321289	2.148437
343.644684	1042.188477	4460.020996	1115.005249	2.130496
344.013550	1017.157776	4587.449707	1089.974487	2.039517
344.382355	1001.229126	4828.655273	1099.076538	2.556481
344.751129	983.024963	4849.134766	1103.627563	3.119482
345.119873	1092.250000	5015.248047	1117.280762	0.638052
345.488586	1008.055725	5311.065430	1142.311401	3.120041
345.857269	1001.229126	5301.963379	1190.097412	4.391536
346.225891	1008.055725	5531.791016	1117.280762	2.414488
346.594482	1035.361938	5570.475098	1160.515625	2.759660
346.963043	1046.739624	5622.812012	1160.515625	2.486324
347.331543	1010.331238	5042.554199	1167.342163	3.893905
347.700043	948.892151	4976.563965	1046.739624	2.429380
348.068512	887.453125	4933.329102	1044.463989	3.880763
348.436951	994.402588	4985.666016	1076.321289	2.052450
348.805328	951.167725	4769.491699	1089.974487	3.635280
349.173645	1021.708862	4776.318359	1151.413574	3.454546
349.541931	983.024963	4760.389648	1124.107300	3.734941
349.910217	978.473938	4865.063477	1049.015137	1.814990
350.278473	923.861450	4944.706543	1096.801025	4.301075
350.646667	1021.708862	4999.319336	1044.463989	0.572080
351.014801	914.759338	5085.789063	1101.352051	4.473541
351.382935	980.749451	5024.350098	1035.361938	1.350591
351.751007	1035.361938	5010.696777	1087.698975	1.316544
352.119049	1071.770264	5188.187500	1103.627563	0.773908
352.487091	1028.535400	5126.748535	1124.107300	2.332038
352.855072	917.034912	5185.912109	1126.382813	4.904051
353.222992	985.300537	5092.615723	1130.933838	3.545705
353.590881	1010.331238	5427.117188	1169.617676	3.606388
353.958740	987.576050	5620.536621	1162.791138	3.781925
354.326599	987.576050	5697.904297	1151.413574	3.478261
354.694397	985.300537	5889.047852	1130.933838	2.969837
355.062134	898.830688	5964.140137	1126.382813	4.492363
355.429840	994.402588	5925.456055	1119.556274	2.538072
355.797516	992.127075	6159.834961	1076.321289	1.629237
356.165192	1014.882263	6259.957520	1190.097412	3.340565
356.532776	912.483826	6401.040039	1099.076538	3.399668
356.900360	978.473938	6583.081543	1194.648438	3.857085
357.267883	992.127075	6528.469238	1176.444214	3.329222
357.635376	1051.290649	6803.807129	1217.403687	2.887659
358.002808	1008.055725	7493.290039	1178.719727	2.631578
358.370270	948.892151	7682.158203	1151.413574	3.007774
358.737640	955.718750	7552.453613	1185.546387	3.483960
359.105011	1005.780212	7322.625977	1249.260864	3.854466
359.472321	1044.463989	7111.002441	1165.066650	1.987998
359.839569	1067.219238	7090.522949	1242.434326	2.908953
360.206787	962.545288	7024.532715	1169.617676	3.415916
360.574005	873.799988	7136.033203	1219.679199	5.523256
360.941193	962.545288	7754.975098	1274.291626	4.589614
361.308319	926.136963	8021.210938	1251.536499	4.586274
361.675415	1017.157776	8676.560547	1208.301514	2.495544
362.042450	926.136963	9129.389648	1274.291626	4.244105
362.409424	928.412476	9871.208984	1187.821899	2.900764
362.776428	1014.882263	9916.719727	1260.638550	2.760736
363.143402	1033.086426	9432.034180	1294.771362	3.115687
363.510284	946.616638	8792.612305	1215.128052	3.422273
363.877136	989.851563	7898.332520	1199.199463	3.030303
364.243988	955.718750	7388.616211	1151.413574	3.042094
364.610779	964.820801	7172.441406	1190.097412	3.629033
364.977539	951.167725	6967.644531	1165.066650	3.555219
365.344269	1044.463989	6658.173828	1176.444214	2.351034
365.710938	985.300537	6737.816895	1190.097412	3.560127
366.077576	905.657288	6637.694336	1224.230225	5.557761
366.444183	976.198425	6587.632813	1192.372925	3.852393
366.810760	983.024963	6471.581055	1183.270874	3.648426
367.177277	944.341125	6583.081543	1165.066650	3.914448
367.543823	976.198425	6660.449219	1192.372925	3.803043
367.910248	1051.290649	6583.081543	1192.372925	2.550390
368.276642	948.892151	6517.091797	1169.617676	3.964037
368.643036	935.239075	6476.132324	1206.026001	4.887063
369.009399	980.749451	6303.192383	1178.719727	3.719538
369.375671	932.963501	6253.131348	1137.760376	3.849444
369.741974	987.576050	6253.131348	1130.933838	2.722558
370.108215	948.892151	6216.722656	1165.066650	4.103672
370.474396	921.585938	6091.569336	1221.954712	5.809860
370.840546	892.004150	6125.702148	1176.444214	5.434782
371.206665	973.922913	6401.040039	1201.474976	4.192872
371.572784	964.820801	6644.520508	1144.586914	3.165064
371.938843	1008.055725	6601.285645	1203.750488	3.498779
372.304840	935.239075	6705.959961	1180.995239	4.258674
372.670807	932.963501	6649.071777	1183.270874	4.378982
373.036713	962.545288	6712.786133	1160.515625	3.442818
373.402649	964.820801	6503.438477	1194.648438	4.149549
373.768524	985.300537	6594.459473	1187.821899	3.610548
374.134308	960.269775	6494.336426	1130.933838	3.083882
374.500122	894.279663	6412.417480	1178.719727	5.154639
374.865875	971.647400	6692.306641	1149.138062	3.102626
375.231567	996.678101	6708.235352	1219.679199	3.904384
375.597260	1019.433350	6730.990723	1272.016113	4.422310
375.962891	996.678101	6951.715820	1235.607788	4.012228
376.328461	1008.055725	7156.512695	1199.199463	3.108808
376.694031	1019.433350	7215.676270	1260.638550	3.892765
377.059540	985.300537	7659.402832	1237.883301	3.784520
377.425049	1005.780212	7932.465332	1262.914063	3.712221
377.790497	1001.229126	8314.752930	1365.312500	4.978221
378.155945	935.239075	8612.846680	1303.873413	4.801422
378.521301	962.545288	8301.099609	1338.006226	5.116280
378.886597	894.279663	8121.333984	1372.139038	6.612091
379.251892	935.239075	7802.760742	1331.179688	5.765408
379.617157	1010.331238	7584.311035	1285.669312	4.188301
379.982422	944.341125	7286.217773	1303.873413	5.669178
380.347595	942.065613	7167.890625	1301.597900	5.774854
380.712738	998.953613	7240.707031	1231.056763	3.718557
381.077820	992.127075	7288.493164	1324.353149	5.276473
381.442902	960.269775	7463.708008	1285.669312	5.003500
381.807953	983.024963	7163.339355	1301.597900	5.154640
382.172974	980.749451	7161.063965	1267.465088	4.639175
382.537933	951.167725	7097.349609	1274.291626	5.257311
382.902832	987.576050	7151.961914	1308.424438	5.204872
383.267700	998.953613	7593.413086	1260.638550	3.968255
383.632538	932.963501	7566.106445	1328.904175	5.969126
383.997345	976.198425	7805.036133	1429.027100	6.631124
384.362152	912.483826	7741.321777	1447.231201	7.830723
384.726898	971.647400	7761.801270	1374.414551	5.931635
385.091553	942.065613	7939.291992	1415.373901	6.764227
385.456238	985.300537	8114.507324	1435.853638	6.319821
385.820862	980.749451	7962.047363	1367.588013	5.541070
386.185425	980.749451	7925.639160	1426.751587	6.422019
386.549988	946.616638	8157.742188	1447.231201	6.942253
386.914490	960.269775	8109.956055	1435.853638	6.651814
387.278961	983.024963	8166.844238	1513.221313	7.380424
387.643372	1012.606750	8319.303711	1535.976563	7.162879
388.007782	996.678101	8542.304688	1524.598877	6.996381
388.372101	957.994263	8749.377930	1529.150024	7.330607
388.736450	930.687988	8401.222656	1495.017212	7.554068
389.100739	942.065613	8348.885742	1403.996338	6.236559
389.464966	969.371887	8285.170898	1490.466064	7.122861
389.829163	983.024963	8166.844238	1510.945801	7.348749
390.193329	989.851563	8043.965820	1513.221313	7.419354
390.557495	926.136963	8305.651367	1670.232300	10.083256
390.921570	882.902100	8469.488281	1556.456177	8.878223
391.285614	948.892151	8642.427734	1599.691162	8.459037
391.649597	1012.606750	9017.888672	1590.588989	7.220011
392.013550	978.473938	9504.850586	1688.436401	8.326660
392.377502	964.820801	9752.881836	1749.875488	8.933196
392.741455	1019.433350	9507.125977	1758.977539	8.713136
393.105316	1014.882263	9536.708008	1738.497925	8.491322
393.469086	973.922913	9534.432617	1615.619751	7.496012
393.832886	1026.259888	9279.574219	1656.579102	7.637165
394.196655	973.922913	9454.789063	1752.151001	9.176281
394.560333	973.922913	9666.412109	1822.692139	9.764398
394.924042	983.024963	9593.595703	1852.273926	10.095139
395.287659	987.576050	9623.177734	1836.345337	9.828722
395.651245	928.412476	9520.779297	1847.722900	10.699152
396.014771	939.790100	9131.665039	1945.570313	12.277778
396.378296	1035.361938	8854.051758	1772.630737	9.429569
396.741791	928.412476	8776.683594	1802.212524	11.133663
397.105255	953.443237	8453.559570	1795.385864	11.225728
397.468628	1001.229126	8351.161133	1768.079712	10.433437
397.832001	935.239075	8260.140625	1672.507813	10.065238
398.195313	948.892151	8656.081055	1843.171875	11.603189
398.558624	935.239075	8540.029297	1861.375977	12.178336
398.921844	898.830688	8565.060547	1820.416626	12.021371
399.285095	946.616638	8669.734375	1822.692139	11.343547
399.648254	942.065613	8701.591797	1872.753662	11.994135
400.011383	932.963501	8574.162109	1831.794189	11.762954
400.374451	953.443237	8501.345703	1893.233276	12.451010
400.737549	992.127075	8608.294922	1884.131226	11.711981
401.100586	973.922913	8469.488281	1888.682251	12.204007
401.463562	983.024963	8553.682617	1900.059814	12.113014
401.826508	994.402588	8844.949219	1929.641602	11.913043
402.189392	1014.882263	8626.499023	1847.722900	10.941705
402.552246	960.269775	8694.764648	1920.539551	12.415417
402.915070	996.678101	8685.663086	1938.743774	12.252147
403.277893	996.678101	8872.255859	2009.284912	12.857556
403.640656	955.718750	9131.665039	1979.703125	12.524353
404.003326	953.443237	9568.565430	1995.631714	12.097199
404.366028	962.545288	9454.789063	2047.968750	12.781350
404.728699	969.371887	9896.240234	2070.723877	12.337497
405.091248	939.790100	10103.312500	2243.663574	14.228955
405.453857	994.402588	10301.282227	2207.255127	13.031785
405.816345	971.647400	9934.923828	2195.877686	13.658289
406.178833	1030.810913	10176.128906	2154.918213	12.291615
406.541260	1008.055725	10112.414063	2273.245361	13.896528
406.903687	944.341125	9775.637695	2268.694336	14.996136
407.266052	962.545288	9707.372070	2198.153076	14.129585
407.628387	967.096313	9552.636719	2159.469238	13.888153
407.990662	1001.229126	9552.636719	2047.968750	12.240554
408.352905	1008.055725	9463.890625	2264.143311	14.854685
408.715118	989.851563	9336.461914	2214.081787	14.667394
409.077332	998.953613	9236.338867	2236.836914	15.027625
409.439484	1037.637451	9409.278320	2270.969727	14.732265
409.801575	1021.708862	9648.208008	2223.183838	13.927724
410.163605	951.167725	9853.004883	2380.194824	16.053171
410.525635	1055.841675	9971.332031	2377.919189	14.828994
410.887604	971.647400	10112.414063	2368.817139	15.285038
411.249573	978.473938	10148.823242	2380.194824	15.285360
411.611481	994.402588	10219.364258	2318.755615	14.356190
411.973328	976.198425	9937.199219	2339.235352	15.210766
412.335144	926.136963	10064.628906	2453.011475	16.708166
412.696930	1008.055725	9752.881836	2350.613037	15.352591
413.058685	946.616638	9923.545898	2250.489990	14.524714
413.420410	953.443237	9707.372070	2373.368164	16.220430
413.782104	980.749451	9837.076172	2407.500977	16.109968
414.143707	978.473938	9900.791016	2407.500977	16.016323
414.505310	989.851563	9907.617188	2309.653564	14.799694
414.866852	987.576050	9932.648438	2391.572266	15.695750
415.228394	1003.504700	10360.446289	2298.276123	13.837550
415.589874	932.963501	10294.456055	2400.674561	15.678174
415.951324	978.473938	10346.792969	2412.052002	15.302404
416.312683	973.922913	10663.090820	2516.726074	15.922969
416.674072	955.718750	11029.449219	2559.960938	15.925006
417.035370	967.096313	11393.532227	2573.614014	15.408120
417.396667	1033.086426	11527.788086	2548.583252	14.440591
417.757935	1021.708862	11725.758789	2550.858887	14.285715
418.119141	1026.259888	12174.036133	2571.338623	13.859972
418.480286	985.300537	12328.771484	2728.349365	15.366098
418.841400	887.453125	13157.061523	2716.971924	14.910979
419.202484	869.248962	13216.224609	2732.900391	15.093991
419.563568	953.443237	13830.615234	2894.462402	15.073335
419.924591	973.922913	14813.640625	2962.728027	14.370273
420.285553	917.034912	14708.966797	3042.371338	15.409998
420.646484	987.576050	16024.217773	3258.545898	15.102905
421.007355	960.269775	15990.084961	3335.913574	15.806208
421.368225	976.198425	17257.548828	3451.965088	15.206150
421.729065	998.953613	17457.794922	3527.057129	15.360154
422.089874	955.718750	17962.960938	3586.220703	15.466951
422.450592	935.239075	17699.000000	3620.353516	16.017374
422.811279	987.576050	17787.746094	3593.047363	15.508600
423.171936	962.545288	17689.898438	3722.751953	16.501156
423.532593	1005.780212	17282.580078	3631.731201	16.133091
423.893127	955.718750	17614.806641	3686.343750	16.391203
424.253723	985.300537	18033.501953	3838.803711	16.737854
424.614197	1042.188477	18001.644531	3788.742188	16.194820
424.974670	1012.606750	18290.636719	3882.038574	16.607403
425.335052	1026.259888	18879.996094	4018.569824	16.760134
425.695496	1014.882263	17787.746094	3913.895752	17.283951
426.055817	932.963501	17960.685547	3861.558838	17.198984
426.416168	1003.504700	17792.296875	4034.498291	18.053673
426.776398	1023.984375	16720.527344	3777.364502	17.541315
427.136627	955.718750	16126.616211	3545.261475	17.069147
427.496826	930.687988	16160.749023	3738.680664	18.437174
427.856995	935.239075	15562.287109	3693.170166	18.855009
428.217102	971.647400	14902.385742	3440.587402	17.722965
428.577179	1010.331238	14731.721680	3429.209961	17.628525
428.937195	1003.504700	14381.291016	3383.699463	17.792143
429.297180	969.371887	13807.860352	3310.882813	18.238214
429.657135	996.678101	13587.134766	3274.474365	18.091452
430.017059	971.647400	13707.737305	3290.403076	18.206181
430.376984	978.473938	13878.401367	3188.004639	17.128241
430.736786	939.790100	13414.195313	3228.964111	18.350967
431.096588	964.820801	13471.083008	3224.413086	18.067688
431.456360	896.555176	13584.859375	3197.106689	18.131275
431.816071	983.024963	13234.428711	3176.626953	17.904905
432.175781	964.820801	13400.541992	3101.534912	17.182070
432.535400	937.514587	13352.755859	3210.759766	18.310116
432.895020	942.065613	13359.583008	3224.413086	18.380062
433.254578	976.198425	13687.257813	3199.382324	17.490154
433.614105	985.300537	13764.625000	3233.515137	17.592594
433.973602	953.443237	14190.147461	3313.158203	17.827057
434.333038	871.524475	13967.146484	3527.057129	20.278019
434.692444	969.371887	14356.260742	3420.107666	18.306986
435.051819	957.994263	14233.382813	3490.648926	19.077820
435.411133	1021.708862	14285.719727	3656.761963	19.866188
435.770416	932.963501	13939.840820	3563.465576	20.223932
436.129669	989.851563	14267.515625	3558.914551	19.348757
436.488861	992.127075	13946.666992	3636.282227	20.411032
436.848083	992.127075	14051.340820	3756.884766	21.170937
437.207184	998.953613	13930.738281	3738.680664	21.185993
437.566254	969.371887	14433.628906	3793.293213	20.973467
437.925293	1010.331238	14308.474609	3820.599365	21.132786
438.284363	967.096313	14374.464844	3900.242676	21.877123
438.643311	1046.739624	14572.435547	3945.753174	21.433378
439.002258	932.963501	14449.556641	3995.814453	22.659935
439.361145	1021.708862	15478.092773	4130.070313	21.501652
439.719971	948.892151	15614.624023	4464.571777	23.972073
440.078827	971.647400	15842.175781	4366.724609	22.830912
440.437592	1037.637451	16379.198242	4487.327148	22.485910
440.796295	1042.188477	16545.312500	4685.297363	23.499191
441.155029	1017.157776	17614.806641	4946.982422	23.676996
441.513672	898.830688	18336.146484	4997.043457	23.502544
441.872253	969.371887	17960.685547	5063.033691	24.092672
442.230865	923.861450	17544.265625	4903.747559	23.945786
442.589386	1085.423462	17341.744141	5051.656250	24.398098
442.947876	960.269775	17068.681641	4944.706543	24.735130
443.306335	967.096313	16820.650391	4860.512207	24.558632
443.664764	957.994263	16074.279297	4733.083496	24.973658
444.023102	919.310425	16688.669922	4851.410156	24.935062
444.381500	973.922913	16586.271484	4867.338867	24.938055
444.739777	957.994263	16424.708984	5015.248047	26.232162
445.098022	851.044800	16467.943359	5078.962402	27.072708
445.456238	978.473938	16631.781250	5008.421387	25.745022
445.814423	917.034912	17150.599609	5069.860352	25.581720
446.172577	996.678101	18217.820313	5458.974609	25.911732
446.530701	932.963501	18365.728516	5295.136719	25.022842
446.888733	910.208313	18727.537109	5543.168457	26.002552
447.246765	944.341125	19808.408203	5691.077637	25.162848
447.604736	962.545288	18905.027344	5511.311523	25.351933
447.962677	930.687988	19376.060547	5641.016113	25.536638
448.320587	967.096313	19637.744141	5656.944824	25.118832
448.678436	1005.780212	18859.515625	5413.463867	24.687738
449.036255	971.647400	18907.302734	5486.280762	25.171274
449.394043	971.647400	17696.724609	5208.666992	25.333332
449.751770	971.647400	17869.664063	5358.851563	25.962833
450.109467	939.790100	17398.632813	5308.790039	26.545002
450.467163	935.239075	17325.814453	5135.850586	25.628210
450.824768	980.749451	16959.457031	5049.380859	25.462831
451.182343	953.443237	17166.529297	5001.594727	24.968420
451.539886	923.861450	16097.034180	5085.789063	27.429516
451.897369	951.167725	16388.300781	4974.288574	26.061321
452.254822	985.300537	16392.851563	4801.349121	24.767393
452.612274	962.545288	16438.361328	5076.687012	26.584328
452.969635	996.678101	16624.955078	5038.002930	25.859055
453.326965	957.994263	16647.710938	5092.615723	26.352430
453.684326	953.443237	16165.299805	4874.165527	25.774120
454.041534	967.096313	15971.880859	4746.736328	25.189568
454.398773	978.473938	15532.705078	4808.175293	26.313320
454.755951	880.626526	15305.153320	4664.817871	26.234425
455.113098	1021.708862	14902.385742	4510.082031	25.131145
455.470215	969.371887	14747.650391	4571.521484	26.143684
455.827240	932.963501	15018.437500	4601.103027	26.042004
456.184265	960.269775	14704.415039	4450.918457	25.397350
456.541260	962.545288	14565.608398	4551.041504	26.380058
456.898193	1008.055725	14834.120117	4448.643066	24.884792
457.255096	1010.331238	14972.926758	4457.745117	24.690350
457.611969	964.820801	14649.802734	4487.327148	25.739941
457.968781	1003.504700	15009.334961	4548.766113	25.312756
458.325531	1010.331238	15321.082031	4482.775879	24.264587
458.682312	973.922913	15762.532227	4614.756348	24.619175
459.039001	953.443237	16816.099609	4778.593750	24.114185
459.395630	969.371887	17287.130859	5065.309082	25.101101
459.752289	971.647400	18870.894531	5347.474121	24.446985
460.108856	951.167725	20306.748047	5681.975586	24.441570
460.465363	930.687988	20816.464844	5736.587891	24.167524
460.821899	921.585938	20930.240234	5716.108398	23.962244
461.178345	928.412476	20238.482422	5757.067871	25.005892
461.534760	942.065613	19869.847656	5697.904297	25.126236
461.891144	976.198425	18597.832031	5499.933594	25.671488
462.247467	1023.984375	18158.656250	5133.574707	23.984062
462.603760	937.514587	17769.541016	5147.228027	25.010139
462.960052	987.576050	16793.343750	4728.532227	23.668297
463.316254	1049.015137	16317.759766	4698.950684	23.904621
463.672424	967.096313	16001.461914	4560.143555	23.898897
464.028564	962.545288	15616.899414	4487.327148	24.052794
464.384644	1008.055725	15585.041992	4457.745117	23.665314
464.740723	992.127075	15990.084961	4466.847168	23.167955
465.096741	921.585938	15614.624023	4644.337891	25.336843
465.452698	932.963501	15703.369141	4405.408203	23.509476
465.808655	901.106262	15849.001953	4464.571777	23.839247
466.164520	889.728638	15439.408203	4441.816406	24.413513
466.520355	971.647400	16347.341797	4582.898926	23.486753
466.876190	973.922913	16413.332031	4664.817871	23.905676
467.231964	978.473938	16331.413086	4553.316895	23.284420
467.587677	983.024963	17155.150391	4523.735352	21.893909
467.943390	948.892151	17246.171875	4630.685059	22.591457
468.299011	998.953613	16404.228516	4528.286621	22.909899
468.654633	939.790100	16467.943359	4626.133789	23.739744
469.010223	1039.912964	16565.791016	4464.571777	22.057745
469.365723	1005.780212	15673.787109	4307.561035	22.510084
469.721191	1030.810913	16015.115234	4389.479492	22.414577
470.076660	1005.780212	15589.592773	4307.561035	22.640038
470.432068	973.922913	15928.645508	4282.530273	22.124165
470.787445	996.678101	15318.805664	4287.081055	22.974260
471.142792	987.576050	15703.369141	4207.437988	21.880314
471.498016	951.167725	15748.879883	4318.938477	22.758726
471.853271	996.678101	15539.531250	4287.081055	22.625565
472.208496	994.402588	15753.430664	4289.356934	22.325008
472.563660	951.167725	15739.777344	4248.397461	22.295738
472.918762	935.239075	16310.933594	4309.836426	21.947609
473.273865	987.576050	16649.986328	4405.408203	21.821878
473.628876	980.749451	17055.029297	4494.153809	21.857304
473.983917	969.371887	16995.865234	4366.724609	21.198355
474.338837	978.473938	17004.966797	4332.591797	20.928583
474.693787	978.473938	16938.976563	4396.306152	21.414314
475.048645	939.790100	16695.496094	4416.785645	22.068167
475.403503	946.616638	16784.242188	4425.888184	21.968390
475.758270	1023.984375	17027.722656	4464.571777	21.498648
476.113037	946.616638	16768.312500	4355.346680	21.544655
476.467773	994.402588	17419.111328	4491.877930	21.293987
476.822418	1026.259888	18315.666016	4728.532227	21.413532
477.177063	917.034912	18183.687500	4516.908691	20.848707
477.531647	976.198425	18700.230469	4694.399414	20.978302
477.886200	928.412476	19109.824219	4605.654297	20.225281
478.240723	919.310425	19703.734375	4819.553223	20.763174
478.595184	964.820801	19690.082031	4783.144531	20.391296
478.949585	951.167725	20377.289063	4837.757324	20.007029
479.303986	907.932800	20322.675781	4851.410156	20.311768
479.658325	1023.984375	20322.675781	4805.899902	19.596746
480.012634	962.545288	20349.982422	4846.859375	20.035212
480.366913	955.718750	21021.261719	4844.583984	19.380812
480.721130	901.106262	21558.283203	4874.165527	19.233311
481.075317	946.616638	22486.697266	5151.779297	19.522503
481.429474	962.545288	23492.476563	5192.738281	18.775879
481.783569	996.678101	24436.818359	5631.914063	19.774778
482.137604	962.545288	25881.773438	5554.546387	18.427540
482.491669	964.820801	28155.019531	6096.120117	18.871870
482.845612	1019.433350	31054.033203	6391.937988	17.887720
483.199554	939.790100	35204.582031	7315.799316	18.608049
483.553436	1019.433350	41039.019531	8373.916992	18.377211
483.907318	980.749451	47870.132813	9634.554688	18.455790
484.261139	937.514587	53791.035156	10929.326172	18.904722
484.614899	892.004150	56366.925781	11527.788086	19.172237
484.968628	1014.882263	55886.789063	11441.318359	19.001411
485.322357	989.851563	53520.250000	10897.468750	18.860731
485.675964	964.820801	49763.363281	9777.913086	18.060154
486.029572	989.851563	45565.027344	8922.317383	17.795702
486.383148	976.198425	43346.394531	8460.386719	17.663805
486.736694	1026.259888	40661.281250	7805.036133	17.102997
487.090149	1001.229126	40847.875000	7843.720215	17.172064
487.443604	944.341125	41958.328125	7971.149414	17.132711
487.796997	932.963501	44281.636719	8301.099609	16.997375
488.150360	987.576050	45189.566406	8419.426758	16.813383
488.503693	962.545288	45797.132813	8496.794922	16.804548
488.856964	835.116150	45071.242188	8212.354492	16.676954
489.210175	953.443237	42074.378906	7855.097656	16.783796
489.563416	917.034912	40065.093750	7374.962891	16.496164
489.916565	996.678101	37700.828125	7042.736816	16.472412
490.269653	948.892151	35341.113281	6444.274902	15.978562
490.622772	967.096313	34267.066406	6325.947754	16.092663
490.975769	960.269775	34125.984375	6264.508789	15.993140
491.328735	957.994263	35564.113281	6380.560547	15.669387
491.681732	980.749451	37780.472656	6708.235352	15.563937
492.034607	1005.780212	40306.300781	7072.318848	15.436281
492.387482	1005.780212	40998.058594	7163.339355	15.396871
492.740326	946.616638	39530.347656	6913.032227	15.463552
493.093079	1008.055725	37689.449219	6642.245117	15.359801
493.445862	1026.259888	34558.335938	5975.517578	14.759772
493.798523	960.269775	31911.904297	5529.515625	14.762536
494.151215	937.514587	29486.199219	5165.432129	14.809500
494.503815	942.065613	27454.158203	4912.849609	14.977256
494.856384	951.167725	25943.212891	4605.654297	14.622600
495.208923	1035.361938	24632.511719	4423.612305	14.358727
495.561432	923.861450	23874.763672	4214.264648	14.336705
495.913879	969.371887	24197.888672	4211.988770	13.959638
496.266296	926.136963	24345.796875	4241.570801	14.156627
496.618683	1021.708862	24015.845703	4114.141602	13.448788
496.970978	969.371887	24914.677734	4264.326172	13.760335
497.323273	985.300537	25158.158203	4257.499512	13.536666
497.675507	1019.433350	25296.964844	4155.101074	12.915925
498.027710	1028.535400	25349.300781	4218.815430	13.117515
498.379852	923.861450	24955.636719	4139.172363	13.379416
498.731995	971.647400	24409.511719	3993.539063	12.893203
499.084076	1051.290649	24320.765625	3938.926514	12.409544
499.436096	1080.872437	23981.712891	3975.334961	12.639111
499.788086	1049.015137	23340.017578	3765.986816	12.188647
500.140106	989.851563	22666.462891	3872.936523	13.300442
500.491943	1033.086426	22322.859375	3722.751953	12.633603
500.843842	1044.463989	22081.654297	3579.394287	12.049757
501.195679	1001.229126	21544.630859	3429.209961	11.818787
501.547455	1001.229126	21237.435547	3581.669678	12.751601
501.899231	987.576050	21189.650391	3492.924316	12.401441
502.250885	932.963501	21080.423828	3324.535889	11.870340
502.602600	957.994263	20941.617188	3240.341553	11.421088
502.954193	930.687988	20843.771484	3322.260254	12.010055
503.305786	1026.259888	20861.974609	3272.198975	11.322702
503.657379	932.963501	20909.759766	3333.637939	12.017314
504.008820	971.647400	20918.863281	3310.882813	11.727126
504.360291	994.402588	21096.353516	3324.535889	11.591578
504.711700	994.402588	21253.365234	3249.443604	11.131079
505.063080	946.616638	21226.058594	3299.505127	11.602333
505.414368	951.167725	21146.414063	3272.198975	11.492958
505.765656	1037.637451	21053.119141	3131.116699	10.459299
506.116943	932.963501	21353.486328	3197.106689	11.087585
506.468109	960.269775	20693.585938	3172.075928	11.208487
506.819305	989.851563	20880.179688	2992.309814	10.067497
507.170410	1023.984375	20930.240234	3092.432861	10.390947
507.521484	978.473938	20877.904297	3078.779541	10.554603
507.872559	1021.708862	21073.597656	2976.381104	9.748071
508.223480	967.096313	21073.597656	3062.851074	10.423269
508.574493	885.177612	21262.466797	3012.789551	10.441093
508.925385	994.402588	21788.111328	3058.300049	9.925586
509.276245	946.616638	21926.917969	3026.442627	9.913232
509.627045	939.790100	22284.175781	3040.095703	9.840085
509.977814	926.136963	22739.279297	3137.943115	10.139787
510.328613	1014.882263	22832.576172	3024.167236	9.209429
510.679260	1010.331238	22991.861328	3081.055176	9.420290
511.029999	987.576050	23171.628906	3101.534912	9.529183
511.380585	1017.157776	23201.210938	2969.554688	8.800903
511.731140	960.269775	23362.771484	3046.922363	9.314373
512.081726	1008.055725	23556.191406	3051.473389	9.062469
512.432129	1039.912964	23692.722656	3074.228516	8.980412
512.782654	978.473938	24061.357422	3042.371338	8.941247
513.133057	955.718750	23738.232422	3115.187988	9.478626
513.483398	989.851563	23968.060547	3033.269287	8.892850
513.833801	983.024963	24152.376953	3083.330566	9.065017
514.183960	1026.259888	23189.832031	2889.911377	8.408624
514.534302	983.024963	23406.007813	2885.360352	8.483865
514.884460	946.616638	23410.558594	2846.676514	8.458265
515.234619	953.443237	23091.984375	2805.717041	8.366738
515.584717	996.678101	23228.515625	2721.522949	7.758445
515.934753	898.830688	23228.515625	2807.992676	8.549883
516.284851	932.963501	23522.058594	2773.859863	8.149491
516.634766	948.892151	23239.894531	2680.563477	7.768477
516.984741	964.820801	24375.378906	2833.023438	7.980171
517.334595	1028.535400	24841.861328	2778.410889	7.348303
517.684448	994.402588	25497.210938	2794.339600	7.345840
518.034363	1014.882263	26805.634766	2798.890625	6.917240
518.384094	937.514587	27913.814453	2983.207764	7.583297
518.733826	969.371887	29092.533203	2980.932129	7.152682
519.083496	978.473938	29463.443359	2951.350586	6.926027
519.433167	962.545288	29993.640625	3071.953125	7.266028
519.782776	937.514587	29716.025391	2896.738037	6.807939
520.132324	944.341125	29001.511719	2867.156250	6.853204
520.481873	944.341125	28471.316406	2864.880615	6.976936
520.831299	1049.015137	27925.191406	2858.054199	6.731014
521.180786	930.687988	26867.074219	2737.451416	6.966134
521.530151	998.953613	26491.613281	2550.858887	6.087655
521.879517	1019.433350	26300.468750	2566.787354	6.120612
522.228882	953.443237	26352.806641	2564.511963	6.342949
522.578064	987.576050	25906.804688	2468.940186	5.944663
522.927307	930.687988	26020.580078	2416.603027	5.922365
523.276489	935.239075	25786.201172	2468.940186	6.171597
523.625610	976.198425	26459.755859	2457.562500	5.813019
523.974792	992.127075	27005.880859	2466.664551	5.668300
524.323792	889.728638	27486.015625	2523.552490	6.143053
524.672852	1012.606750	27542.904297	2639.604248	6.132602
525.021790	992.127075	28767.134766	2509.899414	5.464525
525.370728	1003.504700	30485.152344	2691.941162	5.727077
525.719604	973.922913	31427.218750	2630.501953	5.439737
526.068420	919.310425	33479.738281	2730.625000	5.562932
526.417297	932.963501	35088.531250	2776.135498	5.396403
526.765991	951.167725	35894.066406	2844.401123	5.418078
527.114746	964.820801	37357.226563	2835.298828	5.139748
527.463379	1019.433350	38074.015625	2855.778564	4.955784
527.812012	976.198425	40579.363281	2935.421875	4.947138
528.160706	996.678101	44131.449219	3090.157227	4.853344
528.509155	1012.606750	49189.933594	3215.310791	4.572076
528.857727	1062.668213	53458.808594	3565.741211	4.777209
529.206177	951.167725	56300.937500	3668.139648	4.908732
529.554565	1003.504700	56191.710938	3690.894775	4.869501
529.902893	994.402588	54935.625000	3558.914551	4.754271
530.251221	957.994263	52339.253906	3456.516113	4.862711
530.599548	1008.055725	48313.859375	3131.116699	4.487950
530.947876	951.167725	44802.730469	2839.849854	4.306989
531.296021	914.759338	41305.253906	2812.543701	4.698592
531.644165	1017.157776	38961.468750	2610.022461	4.197901
531.992249	980.749451	37025.000000	2471.215576	4.135101
532.340454	962.545288	36335.515625	2375.643799	3.994854
532.688354	983.024963	36740.558594	2443.909424	4.085529
533.036438	951.167725	37864.667969	2450.735840	4.062384
533.384338	967.096313	39432.500000	2578.165039	4.188358
533.732239	1012.606750	41605.621094	2582.716064	3.867930
534.080139	932.963501	42103.960938	2610.022461	4.073399
534.427917	946.616638	41940.125000	2503.072998	3.796836
534.775757	932.963501	39448.429688	2484.868652	4.029304
535.123474	1033.086426	38074.015625	2391.572266	3.667526
535.471191	896.555176	35598.246094	2332.408936	4.137705
535.818848	1019.433350	34287.546875	2252.765625	3.707250
536.166382	989.851563	33807.414063	2164.020264	3.577867
536.513977	921.585938	33406.921875	2157.193604	3.803586
536.861511	946.616638	34207.902344	2109.407715	3.495929
537.208984	1030.810913	33928.015625	2150.367188	3.403196
537.556396	939.790100	33862.023438	2159.469238	3.704728
537.903809	976.198425	32872.171875	2107.132324	3.545695
538.251160	935.239075	32066.638672	2011.560425	3.457349
538.598389	1001.229126	30960.736328	1936.468262	3.121677
538.945740	1046.739624	29486.199219	1915.988525	3.056489
539.292969	969.371887	29192.656250	1950.121338	3.474966
539.640137	898.830688	29256.371094	1997.907227	3.875782
539.987244	946.616638	29422.484375	1961.498901	3.564008
540.334351	951.167725	30228.017578	1979.703125	3.513135
540.681458	994.402588	32282.814453	1950.121338	3.054545
541.028442	978.473938	35184.101563	1995.631714	2.973656
541.375366	971.647400	38706.609375	2132.163086	3.075439
541.722290	960.269775	41466.816406	2193.602051	3.044773
542.069153	978.473938	43143.875000	2261.867676	3.043713
542.416016	1012.606750	43473.824219	2230.010498	2.867096
542.762756	989.851563	42204.085938	2189.051025	2.909673
543.109558	944.341125	40850.148438	2025.213501	2.708559
543.456299	894.279663	38672.476563	2088.927979	3.162269
543.802917	951.167725	37111.468750	1952.396851	2.768863
544.149536	962.545288	35668.789063	1986.529663	2.950433
544.496094	985.300537	33263.562500	1843.171875	2.657737
544.842651	1014.882263	31766.269531	1768.079712	2.449312
545.189148	912.483826	29968.609375	1788.559326	3.015115
545.535583	917.034912	29158.523438	1749.875488	2.948997
545.882019	960.269775	28459.939453	1688.436401	2.647910
546.228333	962.545288	27904.710938	1695.262939	2.719594
546.574707	967.096313	28334.785156	1672.507813	2.577534
546.920898	948.892151	28414.427734	1624.721802	2.460646
547.267212	1010.331238	28339.335938	1586.037964	2.106578
547.613342	1001.229126	27868.302734	1704.365112	2.617092
547.959473	1021.708862	27856.925781	1670.232300	2.416688
548.305664	914.759338	27094.626953	1586.037964	2.564102
548.651611	1033.086426	25761.171875	1647.477051	2.484586
548.997742	992.127075	24564.246094	1588.313477	2.529202
549.343689	946.616638	23660.865234	1497.292725	2.424364
549.689575	951.167725	22741.554688	1522.323364	2.621136
550.035522	896.555176	21897.335938	1547.354126	3.098927
550.381287	1001.229126	21128.210938	1474.537476	2.351611
550.727173	1017.157776	21094.078125	1392.618774	1.870113
551.072876	983.024963	20452.380859	1374.414551	2.010285
551.418640	987.576050	20293.093750	1403.996338	2.157001
551.764282	923.861450	20463.757813	1463.159912	2.759986
552.109863	967.096313	20309.023438	1447.231201	2.482353
552.455505	994.402588	20861.974609	1454.057739	2.313595
552.801025	1008.055725	20846.046875	1374.414551	1.846754
553.146545	969.371887	21210.128906	1419.924927	2.225969
553.491943	953.443237	21075.873047	1365.312500	2.046817
553.837341	992.127075	21464.988281	1444.955688	2.211848
554.182800	996.678101	21221.507813	1351.659302	1.755175
554.528015	1010.331238	20670.830078	1299.322388	1.469908
554.873352	964.820801	19983.623047	1406.271851	2.321130
555.218628	978.473938	20179.318359	1394.894287	2.168761
555.563721	935.239075	19756.072266	1374.414551	2.333454
555.908875	987.576050	19323.722656	1356.210449	2.010425
556.254028	930.687988	19057.486328	1308.424438	2.083856
556.599121	942.065613	18859.515625	1319.802124	2.108205
556.944031	903.381775	18745.740234	1251.536499	1.951282
557.289063	996.678101	18666.097656	1372.139038	2.124919
557.633972	960.269775	18704.781250	1312.975464	1.987689
557.978882	969.371887	18593.281250	1303.873413	1.897998
558.323792	994.402588	18352.076172	1303.873413	1.782905
558.668518	998.953613	17846.910156	1326.628662	1.944895
559.013306	1003.504700	18176.859375	1258.363037	1.484033
559.358032	987.576050	17931.103516	1226.505737	1.410153
559.702637	1014.882263	18049.431641	1322.077637	1.803367
560.047363	994.402588	18272.431641	1292.495850	1.725273
560.391846	1019.433350	18047.156250	1244.709839	1.322998
560.736450	964.820801	17926.552734	1328.904175	2.146499
561.080933	948.892151	18256.503906	1322.077637	2.156193
561.425354	939.790100	18092.666016	1274.291626	1.950119
561.769775	957.994263	18461.300781	1299.322388	1.950078
562.114136	1012.606750	18368.003906	1303.873413	1.678248
562.458496	1001.229126	18374.830078	1231.056763	1.322855
562.802673	951.167725	18456.750000	1290.220337	1.936826
563.146912	980.749451	18149.554688	1349.383789	2.147117
563.491150	946.616638	18003.919922	1278.842651	1.947705
563.835266	980.749451	18181.412109	1303.873413	1.878555
564.179443	948.892151	18167.757813	1315.250977	2.127660
564.523438	894.279663	18333.871094	1267.465088	2.139875
564.867493	973.922913	18072.185547	1260.638550	1.676870
565.211426	1003.504700	18170.033203	1328.904175	1.895546
565.555359	928.412476	18882.271484	1249.260864	1.787072
565.899231	987.576050	19184.916016	1249.260864	1.438039
566.243042	1008.055725	19794.755859	1353.934937	1.841086
566.586914	973.922913	20065.542969	1328.904175	1.859357
566.930603	998.953613	20318.125000	1292.495850	1.519435
567.274292	989.851563	20243.033203	1358.485962	1.914667
567.617981	978.473938	20281.716797	1258.363037	1.449959
567.961609	996.678101	20126.982422	1267.465088	1.415487
568.305237	951.167725	19726.490234	1240.158813	1.539207
568.648682	1021.708862	19574.029297	1256.087524	1.263339
568.992188	955.718750	19182.640625	1290.220337	1.835206
569.335632	969.371887	18859.515625	1242.434326	1.526329
569.679016	1026.259888	18820.832031	1251.536499	1.265985
570.022461	919.310425	18934.609375	1267.465088	1.932550
570.365662	939.790100	18818.556641	1265.189575	1.820033
570.708984	969.371887	18775.322266	1262.914063	1.648562
571.052185	942.065613	19280.488281	1265.189575	1.762005
571.395386	989.851563	19175.814453	1292.495850	1.664164
571.738525	1010.331238	19815.234375	1331.179688	1.706196
572.081604	1001.229126	20229.380859	1240.158813	1.242603
572.424683	978.473938	20372.738281	1312.975464	1.724745
572.767578	1039.912964	20791.433594	1310.699951	1.370968
573.110596	1062.668213	20513.820313	1274.291626	1.087974
573.453552	962.545288	20450.105469	1206.026001	1.249416
573.796387	1033.086426	20202.074219	1240.158813	1.080247
574.139282	948.892151	20154.287109	1206.026001	1.338863
574.481995	962.545288	19899.429688	1206.026001	1.285748
574.824768	1008.055725	19742.417969	1290.220337	1.506134
575.167480	992.127075	19840.265625	1256.087524	1.400459
575.510132	980.749451	19314.621094	1269.740601	1.576269
575.852722	894.279663	19410.193359	1237.883301	1.855721
576.195251	967.096313	19118.925781	1256.087524	1.592077
576.537842	1014.882263	19159.884766	1262.914063	1.366943
576.880188	948.892151	19023.353516	1206.026001	1.422636
577.222717	998.953613	18404.412109	1231.056763	1.333508
577.565063	1021.708862	17997.093750	1176.444214	0.911528
577.907410	1012.606750	17999.369141	1167.342163	0.910918
578.249756	953.443237	17130.121094	1219.679199	1.645801
578.591919	964.820801	16936.701172	1194.648438	1.438952
578.934204	955.718750	16602.199219	1178.719727	1.425247
579.276306	1005.780212	16279.076172	1206.026001	1.311084
579.618469	937.514587	15960.502930	1153.689087	1.438958
579.960571	928.412476	15962.778320	1267.465088	2.255184
580.302551	1014.882263	15250.540039	1094.525513	0.559463
580.644531	994.402588	15227.785156	1244.709839	1.758593
580.986511	1044.463989	15332.458984	1171.893188	0.891862
581.328369	901.106262	15218.683594	1158.240112	1.795931
581.670227	983.024963	15364.316406	1165.066650	1.265823
582.012024	985.300537	15104.907227	1212.852539	1.611603
582.353821	942.065613	14995.681641	1135.484863	1.376295
582.695496	1005.780212	15050.294922	1199.199463	1.377187
583.037231	1026.259888	14809.089844	1165.066650	1.007099
583.378845	957.994263	14868.252930	1158.240112	1.439555
583.720398	901.106262	14608.843750	1260.638550	2.622842
584.062012	948.892151	14415.423828	1115.005249	1.233526
584.403442	946.616638	14595.190430	1169.617676	1.633878
584.744934	1028.535400	14542.853516	1217.403687	1.397542
585.086365	953.443237	14447.281250	1153.689087	1.483980
585.427734	957.994263	14344.882813	1110.454102	1.138874
585.768982	948.892151	14183.321289	1092.250000	1.083219
586.110291	973.922913	14297.097656	1074.045776	0.751494
586.451599	896.555176	14103.677734	1196.923950	2.274294
586.792725	971.647400	14470.037109	1201.474976	1.702630
587.133850	1010.331238	13987.625977	1185.546387	1.350167
587.474915	971.647400	14376.740234	1112.729614	1.052452
587.815979	989.851563	14358.536133	1151.413574	1.208511
588.157043	939.790100	14549.679688	1165.066650	1.655242
588.497925	926.136963	14408.597656	1133.209351	1.535865
588.838867	1028.535400	14549.679688	1126.382813	0.723662
589.179749	1074.045776	14492.791992	1051.290649	-0.169577
589.520569	955.718750	14941.069336	1133.209351	1.269118
589.861450	1023.984375	14979.753906	1133.209351	0.782651
590.202087	951.167725	14902.385742	1149.138062	1.419018
590.542847	964.820801	15148.141602	1160.515625	1.379753
590.883484	969.371887	14909.211914	1155.964600	1.338557
591.224121	930.687988	14781.783203	1140.035889	1.511418
591.564636	901.106262	14888.732422	1146.862427	1.756954
591.905151	962.545288	14827.293945	1171.893188	1.509929
592.245667	976.198425	14563.333008	1169.617676	1.423547
592.585999	1001.229126	14495.067383	1119.556274	0.876898
592.926453	987.576050	14278.892578	1155.964600	1.266906
593.266724	971.647400	14520.098633	1183.270874	1.561975
593.607056	1005.780212	14235.658203	1135.484863	0.980392
593.947388	1028.535400	14319.852539	1226.505737	1.489471
594.287476	1049.015137	14483.689453	1130.933838	0.609756
594.627686	989.851563	14633.874023	1137.760376	1.084056
594.967773	948.892151	15000.233398	1171.893188	1.587045
595.307861	1010.331238	15293.775391	1187.821899	1.242632
595.647888	946.616638	15063.947266	1103.627563	1.112186
595.987854	1001.229126	15334.734375	1153.689087	1.063661
596.327820	998.953613	15628.277344	1162.791138	1.119925
596.667725	853.320313	16201.708008	1158.240112	1.986657
597.007568	939.790100	16556.689453	1208.301514	1.719364
597.347351	1008.055725	17216.589844	1174.168701	1.024849
597.687073	1023.984375	17466.898438	1212.852539	1.148630
598.026794	962.545288	17407.734375	1235.607788	1.660440
598.366455	951.167725	16975.384766	1272.016113	2.002272
598.706116	937.514587	16424.708984	1201.474976	1.704378
599.045654	980.749451	15976.431641	1196.923950	1.441578
599.385193	989.851563	15025.263672	1133.209351	1.021401
599.724731	978.473938	14802.262695	1099.076538	0.872428
600.064087	912.483826	14770.405273	1208.301514	2.134647
600.403564	971.647400	14037.687500	1194.648438	1.706722
600.742920	921.585938	13980.799805	1219.679199	2.282628
601.082153	955.718750	13789.656250	1153.689087	1.542553
601.421387	926.136963	13996.728516	1151.413574	1.723538
601.760620	973.922913	13527.970703	1142.311401	1.341308
602.099854	946.616638	13871.575195	1121.831787	1.355634
602.438843	973.922913	13762.349609	1108.178589	1.049822
602.778015	937.514587	13960.320313	1133.209351	1.502708
603.117065	1042.188477	14617.945313	1146.862427	0.771036
603.456055	873.799988	14827.293945	1074.045776	1.435094
603.794983	983.024963	15059.396484	1155.964600	1.228581
604.133850	969.371887	15737.501953	1176.444214	1.402157
604.472778	996.678101	16229.014648	1171.893188	1.150284
604.811584	953.443237	16706.873047	1203.750488	1.588906
605.150330	948.892151	17339.468750	1221.954712	1.665973
605.489075	948.892151	17318.988281	1190.097412	1.473451
605.827698	948.892151	17328.091797	1226.505737	1.694916
606.166382	971.647400	16806.996094	1210.577026	1.508837
606.504883	985.300537	16376.922852	1194.648438	1.360142
606.843445	985.300537	16031.043945	1244.709839	1.724138
607.181946	876.075500	15546.358398	1137.760376	1.783775
607.520386	951.167725	14961.548828	1208.301514	1.835309
607.858826	942.065613	15004.784180	1276.567139	2.378640
608.197083	1012.606750	14456.383789	1176.444214	1.218686
608.535461	971.647400	14429.077148	1169.617676	1.471085
608.873718	989.851563	14265.240234	1212.852539	1.679808
609.211914	935.239075	14479.138672	1060.392700	0.924059
609.550171	1014.882263	14834.120117	1206.026001	1.383171
609.888245	971.647400	15468.990234	1190.097412	1.506828
610.226318	935.239075	15637.378906	1130.933838	1.331063
610.564392	1023.984375	15905.890625	1201.474976	1.192660
610.902344	1019.433350	15432.582031	1180.995239	1.120934
611.240295	955.718750	15268.744141	1201.474976	1.717011
611.578247	1017.157776	14916.039063	1153.689087	0.982319
611.916138	1008.055725	14595.190430	1151.413574	1.055100
612.253845	964.820801	14128.708984	1110.454102	1.106309
612.591675	953.443237	13939.840820	1160.515625	1.594533
612.929382	955.718750	13598.512695	1158.240112	1.601872
613.267090	989.851563	13236.704102	1130.933838	1.151988
613.604736	985.300537	13170.714844	1153.689087	1.381886
613.942261	955.718750	12959.090820	1130.933838	1.459715
614.279785	971.647400	12804.355469	1103.627563	1.115384
614.617310	955.718750	12508.538086	1103.627563	1.280283
614.954712	921.585938	12353.802734	1162.791138	2.109873
615.292175	973.922913	12262.781250	1119.556274	1.290063
615.629517	944.341125	12397.037109	1083.147949	1.212001
615.966797	1014.882263	12265.056641	1080.872437	0.586570
616.304138	1012.606750	12312.842773	1055.841675	0.382602
616.641296	967.096313	12255.955078	1169.617676	1.793993
616.978516	1014.882263	11978.341797	1201.474976	1.701951
617.315552	971.647400	12001.096680	1149.138062	1.609243
617.652771	923.861450	12342.424805	1121.831787	1.733759
617.989685	998.953613	12296.914063	1160.515625	1.430010
618.326721	994.402588	12331.046875	1142.311401	1.304697
618.663696	987.576050	12121.699219	1103.627563	1.042305
619.000549	1033.086426	12169.485352	1167.342163	1.205558
619.337463	1001.229126	12246.852539	1110.454102	0.971267
619.674194	1008.055725	11966.963867	1171.893188	1.495016
620.010986	964.820801	12244.577148	1089.974487	1.109542
620.347778	971.647400	12044.332031	1149.138062	1.602960
620.684387	942.065613	11561.920898	1119.556274	1.671310
621.020996	951.167725	11787.197266	1162.791138	1.952961
621.357605	910.208313	11871.391602	1130.933838	2.013702
621.694214	967.096313	11607.431641	1140.035889	1.625321
622.030579	935.239075	11571.023438	1058.117188	1.155327
622.367065	1014.882263	11691.625977	1039.912964	0.234441
622.703430	969.371887	11611.982422	1130.933838	1.518067
623.039795	944.341125	11659.768555	1080.872437	1.274156
623.376160	896.555176	11596.053711	1126.382813	2.148023
623.712402	935.239075	11530.063477	1183.270874	2.341066
624.048645	1008.055725	11493.655273	1153.689087	1.388889
624.384766	994.402588	11434.492188	1144.586914	1.438535
624.720886	939.790100	11370.777344	1096.801025	1.505236
625.057007	1019.433350	11778.095703	1137.760376	1.099830
625.392944	944.341125	11748.513672	1121.831787	1.642797
625.729004	923.861450	11625.635742	1146.862427	2.083776
626.064941	1023.984375	11935.106445	1146.862427	1.126172
626.400818	935.239075	12192.240234	1115.005249	1.596928
626.736633	932.963501	12531.292969	1085.423462	1.314499
627.072449	932.963501	12590.457031	1169.617676	2.030061
627.408264	1003.504700	12597.283203	1092.250000	0.765456
627.743896	957.994263	12758.844727	1117.280762	1.349788
628.079590	998.953613	12790.702148	1130.933838	1.119259
628.415161	992.127075	12765.671875	1187.821899	1.662157
628.750793	1014.882263	12262.781250	1096.801025	0.728303
629.086365	955.718750	12228.648438	1155.964600	1.776343
629.421753	942.065613	12071.637695	1124.107300	1.635658
629.757263	919.310425	11805.402344	1060.392700	1.295986
630.092651	960.269775	11928.280273	1096.801025	1.244813
630.427917	960.269775	11348.022461	1162.791138	1.949617
630.763184	976.198425	11402.634766	1124.107300	1.418595
631.098511	942.065613	11309.338867	1160.515625	2.107111
631.433716	1019.433350	11099.990234	1058.117188	0.383747
631.768799	992.127075	11061.306641	1094.525513	1.016949
632.103943	985.300537	10747.285156	1117.280762	1.351982
632.438965	1026.259888	10865.612305	1115.005249	0.901943
632.773987	985.300537	10799.622070	1112.729614	1.298399
633.109070	983.024963	10578.896484	1117.280762	1.399100
633.443848	994.402588	10308.109375	1149.138062	1.661374
633.778870	1021.708862	10647.162109	1071.770264	0.520094
634.113708	1005.780212	10603.926758	1096.801025	0.948317
634.448425	926.136963	10788.244141	1078.596802	1.545915
634.783264	994.402588	10917.949219	1087.698975	0.940152
635.117859	1003.504700	10549.314453	1064.943726	0.643623
635.452576	951.167725	10804.172852	1094.525513	1.454965
635.787170	953.443237	10628.958008	1053.566162	1.034807
636.121704	964.820801	10376.375000	1144.586914	1.910058
636.456177	957.994263	10394.579102	1146.862427	2.001446
636.790588	987.576050	10280.802734	1101.352051	1.224290
637.125122	978.473938	10116.965820	1096.801025	1.294821
637.459412	971.647400	10062.352539	1133.209351	1.777221
637.793762	957.994263	9825.699219	1160.515625	2.283808
638.128052	944.341125	9802.943359	1035.361938	1.027485
638.462280	957.994263	9695.994141	1030.810913	0.833333
638.796509	892.004150	9673.239258	1071.770264	2.047162
639.130615	985.300537	9468.442383	1137.760376	1.797210
639.464722	998.953613	9620.902344	1110.454102	1.293217
639.798767	955.718750	9500.299805	1099.076538	1.677763
640.132751	1035.361938	9240.889648	1060.392700	0.305048
640.466736	1033.086426	9331.911133	1092.250000	0.712915
640.800598	957.994263	9229.512695	1087.698975	1.568088
641.134521	980.749451	8958.725586	1144.586914	2.053622
641.468262	989.851563	9045.195313	1101.352051	1.384180
641.802063	978.473938	9195.379883	1012.606750	0.415397
642.135803	917.034912	8910.939453	1058.117188	1.764873
642.469421	942.065613	8888.184570	1069.494751	1.603665
642.803101	971.647400	8976.929688	1094.525513	1.534963
643.136658	971.647400	8669.734375	1062.668213	1.182382
643.470215	969.371887	8742.550781	1112.729614	1.844261
643.803711	969.371887	8712.968750	1080.872437	1.439906
644.137085	939.790100	8847.224609	1135.484863	2.474820
644.470581	964.820801	8726.622070	1094.525513	1.671065
644.803833	985.300537	8772.132813	1117.280762	1.694916
645.137207	1001.229126	8642.427734	1101.352051	1.310304
645.470459	985.300537	8672.009766	1155.964600	2.220249
645.803589	996.678101	8560.508789	1037.637451	0.541516
646.136780	1039.912964	8772.132813	1158.240112	1.530313
646.469849	1012.606750	8519.549805	1103.627563	1.212488
646.802979	998.953613	8656.081055	1035.361938	0.475483
647.135986	946.616638	8826.745117	1028.535400	1.039561
647.468994	969.371887	8799.438477	1046.739624	0.988085
647.801941	989.851563	8628.774414	1158.240112	2.204349
648.134766	939.790100	8703.867188	1080.872437	1.817117
648.467651	1019.433350	8990.583008	1092.250000	0.913503
648.800354	992.127075	8685.663086	1110.454102	1.538006
649.133179	937.514587	8667.458984	1089.974487	1.972329
649.465881	1060.392700	8790.336914	1055.841675	-0.058875
649.798462	917.034912	8699.316406	1135.484863	2.807017
650.131104	976.198425	8533.203125	1085.423462	1.445348
650.463623	992.127075	8815.367188	1060.392700	0.872600
650.796143	973.922913	8724.346680	1117.280762	1.849678
651.128662	1008.055725	8681.112305	1103.627563	1.245551
651.461060	989.851563	8763.030273	1140.035889	1.932084
651.793396	907.932800	8986.031250	1087.698975	2.225353
652.125732	951.167725	8865.428711	1076.321289	1.581368
652.458008	976.198425	8790.336914	1053.566162	0.990099
652.790222	1005.780212	8724.346680	1055.841675	0.648585
653.122437	921.585938	8772.132813	1089.974487	2.144928
653.454529	914.759338	8774.408203	1133.209351	2.779386
653.786621	935.239075	8460.386719	1083.147949	1.965528
654.118713	957.994263	8533.203125	1058.117188	1.321718
654.450623	1017.157776	8544.581055	996.678101	-0.272068
654.782654	946.616638	8489.967773	1087.698975	1.870287
655.114502	989.851563	8453.559570	1117.280762	1.707318
655.446350	1026.259888	8235.109375	1105.903076	1.104797
655.778198	973.922913	8526.375977	1074.045776	1.325700
656.109863	1001.229126	8405.773438	1124.107300	1.659497
656.441650	985.300537	8310.202148	1074.045776	1.211555
656.773254	1023.984375	8273.793945	1169.617676	2.008788
657.104919	962.545288	8291.998047	1135.484863	2.359516
657.436462	998.953613	8255.589844	1128.658325	1.787394
657.767944	957.994263	8357.988281	1074.045776	1.568265
658.099548	983.024963	8451.284180	1128.658325	1.950031
658.430908	1058.117188	8535.478516	1101.352051	0.578210
658.762268	919.310425	8840.398438	1183.270874	3.332376
659.093628	1014.882263	9081.603516	1140.035889	1.551481
659.424927	944.341125	9284.125000	1117.280762	2.073670
659.756226	989.851563	9589.044922	1185.546387	2.275735
660.087341	953.443237	9805.218750	1117.280762	1.850900
660.418518	983.024963	9766.535156	1121.831787	1.580312
660.749573	937.514587	9650.483398	1103.627563	1.906503
661.080627	964.820801	9541.258789	1078.596802	1.326611
661.411621	971.647400	9347.839844	1087.698975	1.385493
661.742554	971.647400	9270.471680	1128.658325	1.891966
662.073547	994.402588	9024.715820	1094.525513	1.246812
662.404297	937.514587	8872.255859	1069.494751	1.663320
662.735229	1030.810913	8378.467773	1062.668213	0.433571
663.065979	953.443237	8606.019531	1119.556274	2.170681
663.396667	937.514587	8419.426758	1192.372925	3.406326
663.727417	1028.535400	8153.190918	1026.259888	-0.031939
664.057922	998.953613	7993.904785	1094.525513	1.366298
664.388611	939.790100	8037.139648	1092.250000	2.148124
664.719116	992.127075	7868.750977	1162.791138	2.481800
665.049622	978.473938	7720.842285	1126.382813	2.193723
665.380005	953.443237	7732.219727	1083.147949	1.913394
665.710388	994.402588	7682.158203	1053.566162	0.884655
666.040771	946.616638	7764.077148	1130.933838	2.703605
666.371033	1001.229126	7679.882813	1092.250000	1.362863
666.701294	992.127075	7459.157227	1112.729614	1.864883
667.031555	967.096313	7568.382324	1071.770264	1.585660
667.361633	964.820801	7711.740234	1051.290649	1.281620
667.691772	1019.433350	7561.555664	1010.331238	-0.139131
668.021790	980.749451	7399.993652	1083.147949	1.595180
668.351807	932.963501	7816.414063	1087.698975	2.247935
668.681763	962.545288	7463.708008	1042.188477	1.225061
669.011719	951.167725	7563.831055	1049.015137	1.479698
669.341614	942.065613	7561.555664	1190.097412	3.746992
669.671387	960.269775	7700.362305	1083.147949	1.823093
670.001221	930.687988	7638.923340	1010.331238	1.187246
670.330933	944.341125	7645.750000	1167.342163	3.327674
670.660583	946.616638	7643.474609	1101.352051	2.310567
670.990173	944.341125	7677.607422	1105.903076	2.399459
671.319763	994.402588	7420.473145	1064.943726	1.097734
671.649292	960.269775	7495.565430	1155.964600	2.994429
671.978821	960.269775	7327.176758	1051.290649	1.429593
672.308289	973.922913	7313.523926	1160.515625	2.943288
672.637695	980.749451	7390.891602	1119.556274	2.165425
672.966980	1026.259888	7281.666504	1033.086426	0.109130
673.296326	1012.606750	7390.891602	1133.209351	1.890831
673.625610	967.096313	7277.115723	1074.045776	1.694915
673.954773	994.402588	7161.063965	1019.433350	0.405905
674.283936	1042.188477	7283.941895	1055.841675	0.218740
674.613037	971.647400	6972.195801	1049.015137	1.289344
674.942078	1014.882263	7085.971680	1014.882263	0.000000
675.271118	926.136963	7136.033203	1096.801025	2.748259
675.600098	1021.708862	7060.940918	1110.454102	1.469479
675.928955	957.994263	7045.012207	1035.361938	1.271028
676.257813	960.269775	7099.625000	1062.668213	1.667902
676.586670	948.892151	7008.604004	1121.831787	2.853925
676.915466	1008.055725	7124.655762	1030.810913	0.372023
677.244141	992.127075	7056.390137	1076.321289	1.388367
677.572876	962.545288	7017.706055	1085.423462	2.029313
677.901489	964.820801	6940.338379	1019.433350	0.913938
678.230042	1028.535400	6935.787598	1083.147949	0.924500
678.558594	1019.433350	7029.083984	1094.525513	1.249526
678.887085	937.514587	7042.736816	1005.780212	1.118151
679.215515	942.065613	6994.951172	1005.780212	1.052632
679.543945	992.127075	7279.391113	1049.015137	0.904814
679.872253	1019.433350	7113.277832	1028.535400	0.149365
680.200562	1008.055725	7343.105469	1169.617676	2.550287
680.528809	962.545288	7418.197754	1039.912964	1.198449
680.856995	930.687988	7618.443848	1030.810913	1.497108
681.185120	939.790100	7864.199707	1069.494751	1.873151
681.513306	957.994263	7850.546875	1005.780212	0.693298
681.841309	1046.739624	7707.188965	1117.280762	1.059105
682.169373	919.310425	7607.065918	1130.933838	3.164341
682.497314	1019.433350	7632.096680	1078.596802	0.894699
682.825134	887.453125	7557.004395	1130.933838	3.650631
683.153076	987.576050	7657.127441	1087.698975	1.501194
683.480896	978.473938	7379.514160	1126.382813	2.310701
683.808655	1008.055725	7454.605957	1087.698975	1.235440
684.136414	1028.535400	7099.625000	1033.086426	0.074962
684.464050	987.576050	7051.838867	1062.668213	1.238274
684.791626	962.545288	6812.909180	1017.157776	0.933489
685.119263	1001.229126	6810.633789	1124.107300	2.115160
685.446838	1085.423462	6724.164063	1064.943726	-0.363197
685.774292	944.341125	6646.796387	1044.463989	1.755785
686.101685	935.239075	6769.674316	1028.535400	1.599064
686.429077	942.065613	6585.357422	1062.668213	2.137097
686.756348	907.932800	6553.500000	1060.392700	2.700524
687.083679	921.585938	6553.500000	994.402588	1.292929
687.410950	989.851563	6546.673340	1058.117188	1.228501
687.738159	953.443237	6478.407715	1008.055725	0.988468
688.065308	964.820801	6696.857910	1058.117188	1.627631
688.392395	980.749451	6692.306641	1085.423462	1.832670
688.719421	978.473938	6592.183594	1142.311401	2.918524
689.046448	1003.504700	6635.418457	1067.219238	1.131312
689.373413	973.922913	6496.611816	1037.637451	1.153687
689.700317	939.790100	6512.540527	1055.841675	2.082483
690.027100	1028.535400	6726.439453	1094.525513	1.158147
690.353943	932.963501	6426.070801	1119.556274	3.396853
690.680725	953.443237	6305.468262	994.402588	0.765306
691.007446	1012.606750	6284.988281	980.749451	-0.604230
691.334106	1026.259888	6002.823730	1085.423462	1.188844
691.660645	983.024963	6107.498047	1078.596802	1.865008
691.987244	1026.259888	6061.987305	1008.055725	-0.361500
692.313721	1008.055725	5964.140137	1001.229126	-0.137742
692.640259	996.678101	5895.874512	1008.055725	0.232235
692.966675	1074.045776	5838.986328	1035.361938	-0.811843
693.293030	971.647400	5916.354004	994.402588	0.460193
693.619324	1044.463989	5791.200684	1044.463989	0.000000
693.945618	969.371887	5925.456055	1049.015137	1.606979
694.271851	939.790100	5838.986328	1117.280762	3.622853
694.598083	973.922913	5609.158691	1067.219238	2.012763
694.924194	932.963501	5775.271973	998.953613	1.362782
695.250244	967.096313	5593.229980	994.402588	0.590261
695.576294	1003.504700	5732.037109	1001.229126	-0.048124
695.902283	964.820801	5584.127930	1058.117188	2.019705
696.228210	928.412476	5625.087402	1010.331238	1.744186
696.554138	996.678101	5768.445313	1028.535400	0.667621
696.879944	939.790100	5852.639648	964.820801	0.509495
697.205750	969.371887	5877.670410	1017.157776	0.973573
697.531433	951.167725	5952.762207	1014.882263	1.273884
697.857178	921.585938	6021.027832	1051.290649	2.543508
698.182739	987.576050	6155.283691	1067.219238	1.541171
698.508423	944.341125	6628.592285	976.198425	0.560449
698.833984	971.647400	6787.878418	1085.423462	1.956182
699.159485	971.647400	6833.389160	1067.219238	1.630434
699.484924	973.922913	7113.277832	1033.086426	0.963676
699.810303	921.585938	7393.166992	1137.760376	3.340365
700.135681	939.790100	7190.645508	1044.463989	1.674553
700.460999	889.728638	7129.206543	1035.361938	2.334062
700.786255	973.922913	6958.542480	1010.331238	0.608365
701.111450	866.973450	6787.878418	1108.178589	4.073789
701.436646	969.371887	6494.336426	1087.698975	2.141680
701.761719	1060.392700	6360.080566	1080.872437	0.386433
702.086792	973.922913	6362.355957	1003.504700	0.548987
702.411865	987.576050	5970.966797	1101.352051	2.283104
702.736816	1001.229126	5791.200684	971.647400	-0.617576
703.061646	937.514587	5763.894043	985.300537	0.990099
703.386536	1010.331238	5656.944824	1030.810913	0.440744
703.711365	1033.086426	5326.994141	1021.708862	-0.264970
704.036194	1044.463989	5306.514648	1053.566162	0.213563
704.360901	1019.433350	5342.922852	1017.157776	-0.052633
704.685547	1023.984375	5199.564941	1001.229126	-0.544960
705.010132	994.402588	5279.208496	1083.147949	2.071164
705.334717	964.820801	5067.584961	992.127075	0.665558
705.659302	973.922913	5163.156738	1039.912964	1.575230
705.983765	973.922913	4965.186523	1030.810913	1.425313
706.308228	980.749451	5119.921875	1003.504700	0.549754
706.632568	967.096313	5156.330078	951.167725	-0.380227
706.956909	953.443237	5042.554199	973.922913	0.500834
707.281189	951.167725	5076.687012	1028.535400	1.875344
707.605408	939.790100	5067.584961	1053.566162	2.756340
707.929626	967.096313	4874.165527	1049.015137	2.096682
708.253784	892.004150	5144.952637	1076.321289	4.333868
708.577820	989.851563	5008.421387	1108.178589	2.944506
708.901855	964.820801	4999.319336	1069.494751	2.594472
709.225830	960.269775	5076.687012	1014.882263	1.326700
709.549805	1003.504700	5067.584961	1023.984375	0.503919
709.873718	971.647400	4937.880371	1003.504700	0.803213
710.197510	1005.780212	5188.187500	1055.841675	1.196953
710.521362	962.545288	5069.860352	1103.627563	3.434903
710.845093	1001.229126	5190.462891	1033.086426	0.760456
711.168701	989.851563	5320.167480	1037.637451	1.103520
711.492432	953.443237	5349.749512	1124.107300	3.881988
711.816040	1021.708862	5370.229004	1062.668213	0.941915
712.139587	923.861450	5486.280762	1023.984375	2.194514
712.463074	994.402588	5342.922852	978.473938	-0.366300
712.786499	946.616638	5361.126953	1012.606750	1.494846
713.109924	944.341125	5317.892090	1012.606750	1.560874
713.433350	948.892151	5358.851563	1062.668213	2.579980
713.756592	1055.841675	5122.197266	1092.250000	0.895355
714.079834	955.718750	5169.983398	1026.259888	1.673866
714.403015	1014.882263	5158.605469	1076.321289	1.482701
714.726196	996.678101	5188.187500	1110.454102	2.714440
715.049255	1012.606750	4992.492676	1051.290649	0.971985
715.372375	939.790100	4997.043457	1008.055725	1.682558
715.695435	960.269775	5049.380859	980.749451	0.500834
716.018311	967.096313	5081.237793	1062.668213	2.323009
716.341248	923.861450	5044.829590	1046.739624	2.981779
716.664063	1026.259888	4994.768066	1039.912964	0.344035
716.987000	939.790100	5051.656250	1062.668213	2.988378
717.309692	989.851563	4906.022949	1001.229126	0.290528
717.632385	951.167725	4919.675781	1089.974487	3.497706
717.955078	948.892151	4667.093262	976.198425	0.734395
718.277649	1005.780212	4710.328125	1046.739624	1.105652
718.600220	957.994263	4819.553223	994.402588	0.942840
718.922791	1008.055725	4573.796875	1014.882263	0.191448
719.245300	985.300537	4587.449707	1060.392700	2.084649
719.567688	996.678101	4475.949219	1083.147949	2.485286
719.890015	976.198425	4548.766113	1099.076538	3.439490
720.212341	967.096313	4423.612305	1049.015137	2.369982
720.534607	937.514587	4428.163574	1074.045776	3.911341
720.856873	937.514587	4296.183105	1042.188477	3.116529
721.179016	937.514587	4232.468750	1076.321289	4.212705
721.501160	894.279663	4118.692871	1055.841675	5.010587
721.823242	953.443237	4184.682617	1062.668213	3.380281
722.145264	1064.943726	4068.631104	1051.290649	-0.454544
722.467224	1003.504700	4109.590332	1101.352051	3.150182
722.789185	951.167725	4089.110840	1167.342163	6.889049
723.111023	951.167725	4102.764160	1092.250000	4.476534
723.432861	960.269775	4100.488281	1039.912964	2.536231
723.754578	948.892151	4089.110840	1103.627563	4.927536
724.076294	967.096313	3979.885986	1019.433350	1.737162
724.397949	946.616638	3925.273438	992.127075	1.527885
724.719666	976.198425	3941.202148	1037.637451	2.072140
725.041260	985.300537	4109.590332	1035.361938	1.602329
725.362732	973.922913	3948.028564	987.576050	0.459067
725.684265	914.759338	3988.988037	1044.463989	4.219096
726.005676	930.687988	4048.151611	1103.627563	5.547445
726.327087	928.412476	3988.988037	976.198425	1.561339
726.648438	885.177612	4020.845215	983.024963	3.120463
726.969666	976.198425	4200.611328	1055.841675	2.470008
727.290894	948.892151	4182.407227	998.953613	1.548206
727.612061	1001.229126	4139.172363	1076.321289	2.393038
727.933228	964.820801	4277.979004	1005.780212	1.236265
728.254395	951.167725	4284.805664	996.678101	1.365187
728.575378	987.576050	4248.397461	1064.943726	2.372644
728.896301	953.443237	4182.407227	1023.984375	2.184637
729.217285	1058.117188	4293.907715	1033.086426	-0.773559
729.538147	1042.188477	4332.591797	1012.606750	-0.899030
729.858948	992.127075	4237.019531	996.678101	0.140252
730.179810	980.749451	4396.306152	1028.535400	1.399068
730.500549	957.994263	4268.876953	1060.392700	3.092783
730.821228	996.678101	4232.468750	1051.290649	1.687765
731.141846	998.953613	4293.907715	1030.810913	0.966851
731.462402	967.096313	4330.315918	1030.810913	1.894452
731.782898	1005.780212	4480.500488	1023.984375	0.523903
732.103455	942.065613	4555.592773	1033.086426	2.518891
732.423889	971.647400	4530.562012	1049.015137	2.173914
732.744263	983.024963	4359.897949	1062.668213	2.358491
733.064636	973.922913	4364.448730	1044.463989	2.080535
733.384888	901.106262	4473.673828	1037.637451	3.821654
733.705200	998.953613	4343.969238	1055.841675	1.700681
734.025330	978.473938	4353.071289	1078.596802	2.966957
734.345520	1033.086426	4439.541016	1092.250000	1.736808
734.665527	969.371887	4341.693848	1087.698975	3.508772
734.985596	932.963501	4218.815430	1165.066650	7.063713
735.305542	998.953613	4200.611328	1067.219238	2.132196
735.625549	994.402588	4000.365479	1160.515625	5.526117
735.945435	1010.331238	4114.141602	1078.596802	2.199412
736.265259	896.555176	4057.253662	1044.463989	4.679624
736.585083	905.657288	4036.773926	1105.903076	6.395347
736.904785	987.576050	3836.528076	1046.739624	2.076679
737.224426	962.545288	3932.099854	1087.698975	4.214561
737.544128	969.371887	3936.650879	1094.525513	4.217791
737.863708	978.473938	3891.140625	1069.494751	3.124999
738.183289	939.790100	3922.997803	1060.392700	4.042716
738.502808	951.167725	3984.437012	1037.637451	2.850711
738.822205	1005.780212	3954.855225	1067.219238	2.083332
739.141541	946.616638	3954.855225	1069.494751	4.084720
739.460938	1049.015137	3970.783691	1140.035889	3.115262
739.780212	994.402588	4123.243652	1144.586914	4.799999
740.099426	932.963501	3934.375488	1046.739624	3.790753
740.418640	987.576050	3979.885986	1135.484863	4.942964
740.737793	935.239075	4070.906738	1149.138062	6.821481
741.056885	957.994263	4050.427002	1089.974487	4.267845
741.375977	983.024963	4054.978027	1124.107300	4.592594
741.694946	953.443237	3888.864990	1067.219238	3.875968
742.013855	926.136963	3872.936523	1071.770264	4.942084
742.332703	976.198425	3877.487549	1017.157776	1.411764
742.651550	969.371887	3893.416016	1115.005249	4.980546
742.970398	878.351013	3672.690674	1133.209351	9.120522
743.289124	939.790100	3638.557861	1094.525513	5.733558
743.607788	971.647400	3800.119629	1074.045776	3.620272
743.926453	978.473938	3770.538086	1058.117188	2.852486
744.245056	994.402588	3704.547852	1146.862427	5.625523
744.563599	955.718750	3661.312988	1055.841675	3.700589
744.882141	944.341125	3718.200928	1080.872437	4.922070
745.200500	942.065613	3574.843262	1067.219238	4.753673
745.518860	983.024963	3659.037354	1103.627563	4.506803
745.837219	939.790100	3583.945313	1151.413574	8.003444
746.155518	951.167725	3542.985840	1117.280762	6.409132
746.473755	946.616638	3486.097900	1046.739624	3.942655
746.791992	998.953613	3681.792725	1101.352051	3.816794
747.110107	955.718750	3461.067139	1069.494751	4.541325
747.428162	985.300537	3618.078125	1030.810913	1.728607
747.746216	983.024963	3465.618164	1035.361938	2.108157
748.064148	1010.331238	3536.159424	1153.689087	5.675677
748.382080	1028.535400	3433.760986	1094.525513	2.743614
748.700073	987.576050	3383.699463	1039.912964	2.184233
749.017822	1014.882263	3531.608398	1112.729614	3.887882
749.335632	985.300537	3461.067139	1121.831787	5.514706
749.653320	1021.708862	3540.710449	1167.342163	5.781390
749.971008	921.585938	3583.945313	1165.066650	9.145299
750.288696	994.402588	3504.302002	1130.933838	5.439710
750.606262	921.585938	3561.189941	1092.250000	6.465518
750.923828	935.239075	3579.394287	1140.035889	7.745264
751.241272	946.616638	3545.261475	1165.066650	8.406305
751.558716	957.994263	3522.506104	1094.525513	5.323869
751.876038	983.024963	3508.853027	1176.444214	7.657657
752.193481	1001.229126	3497.475586	1115.005249	4.557888
752.510681	889.728638	3467.893799	1146.862427	9.973519
752.827942	957.994263	3431.485352	1178.719727	8.923640
753.145081	939.790100	3440.587402	1162.791138	8.917197
753.462219	955.718750	3495.199951	1206.026001	9.856629
753.779297	980.749451	3385.974854	1121.831787	5.865660
754.096375	951.167725	3404.179199	1146.862427	7.977733
754.413330	1012.606750	3431.485352	1203.750488	7.902163
754.730286	989.851563	3360.944336	1210.577026	9.309018
755.047119	1003.504700	3379.148438	1171.893188	7.088120
755.363892	1008.055725	3349.566650	1187.821899	7.677358
755.680725	919.310425	3370.046387	1224.230225	12.441969
755.997498	985.300537	3317.709229	1165.066650	7.707316
756.314148	978.473938	3308.607178	1158.240112	7.714845
756.630737	976.198425	3390.525879	1158.240112	7.540058
756.947327	998.953613	3356.393066	1158.240112	6.756759
757.263855	980.749451	3194.831299	1224.230225	10.996919
757.580261	1010.331238	3322.260254	1244.709839	10.137794
757.896729	996.678101	3324.535889	1169.617676	7.429129
758.213074	971.647400	3502.026611	1228.781250	10.161870
758.529419	1017.157776	3440.587402	1196.923950	7.417841
758.845642	971.647400	3436.036377	1276.567139	12.373036
759.161865	1046.739624	3547.536865	1210.577026	6.551406
759.478149	1010.331238	3445.138428	1276.567139	10.934579
759.794189	957.994263	3542.985840	1319.802124	13.996481
760.110229	987.576050	3529.332764	1324.353149	13.249777
760.426270	960.269775	3504.302002	1356.210449	15.563509
760.742249	978.473938	3413.281250	1376.690063	16.355139
761.058105	992.127075	3556.638916	1315.250977	12.599822
761.374023	971.647400	3568.016602	1310.699951	13.058719
761.689819	976.198425	3524.781738	1310.699951	13.124999
762.005554	1037.637451	3558.914551	1301.597900	10.469316
762.321289	932.963501	3561.189941	1347.108276	15.757575
762.636902	967.096313	3549.812500	1367.588013	15.506608
762.952515	1021.708862	3634.006836	1399.445313	14.459930
763.268127	937.514587	3686.343750	1333.455200	14.403974
763.583618	983.024963	3761.435791	1358.485962	13.513515
763.899048	992.127075	4152.825684	1444.955688	14.326852
764.214478	1019.433350	4612.480469	1495.017212	13.236227
764.529785	919.310425	4778.593750	1567.833862	16.804245
764.845093	964.820801	5006.145996	1599.691162	15.709460
765.160400	978.473938	4874.165527	1686.160889	18.165888
765.475586	964.820801	4874.165527	1583.762451	15.832363
765.790771	980.749451	4612.480469	1647.477051	18.358397
766.105835	973.922913	4434.990234	1497.292725	15.121631
766.420837	951.167725	4116.416992	1563.282837	19.338608
766.735840	935.239075	4082.284424	1631.548462	22.125813
767.050842	969.371887	3822.875000	1483.639526	18.022326
767.365662	1023.984375	3852.456787	1583.762451	19.790827
767.680542	992.127075	3643.108887	1472.261963	18.111586
767.995300	926.136963	3483.822266	1429.027100	19.661924
768.309998	969.371887	3520.230713	1378.965576	16.057089
768.624817	987.576050	3467.893799	1460.884399	19.082569
768.939392	951.167725	3506.577637	1431.302612	18.788958
769.254028	996.678101	3272.198975	1356.210449	15.800001
769.568481	969.371887	3281.301025	1417.649414	19.389761
769.882935	921.585938	3360.944336	1479.088501	22.854475
770.197388	992.127075	3274.474365	1444.955688	19.840479
770.511841	871.524475	3183.453613	1454.057739	25.196848
770.826172	923.861450	3183.453613	1442.680176	22.960724
771.140442	980.749451	3188.004639	1378.965576	18.041237
771.454651	989.851563	3185.729004	1419.924927	19.585491
771.768860	937.514587	3035.544678	1422.200562	23.101955
772.082886	992.127075	3172.075928	1415.373901	19.415449
772.397034	994.402588	3046.922363	1497.292725	24.501110
772.711060	935.239075	2994.585449	1401.720825	22.651932
773.025024	996.678101	3028.718262	1463.159912	22.956327
773.338928	919.310425	3062.851074	1378.965576	21.443735
773.652771	973.922913	3081.055176	1358.485962	18.250542
773.966614	1001.229126	2942.248291	1374.414551	19.226261
774.280457	971.647400	2962.728027	1474.537476	25.257143
774.594116	976.198425	2914.942139	1403.996338	22.065729
774.907776	978.473938	2928.595215	1447.231201	24.037338
775.221375	889.728638	2917.217773	1358.485962	23.120090
775.534912	960.269775	2965.003662	1399.445313	21.906925
775.848450	939.790100	2962.728027	1376.690063	21.597300
776.161926	1023.984375	2889.911377	1385.792114	19.390242
776.475342	939.790100	2871.707275	1424.476074	25.088341
776.788696	998.953613	2896.738037	1495.017212	26.139091
777.101990	937.514587	2860.329590	1401.720825	24.142014
777.415283	989.851563	2798.890625	1438.129150	24.779873
777.728516	926.136963	2812.543701	1349.383789	22.436668
778.041626	951.167725	2883.084961	1422.200562	24.381626
778.354736	910.208313	2794.339600	1360.761475	23.913044
778.667725	914.759338	2807.992676	1413.098389	26.322113
778.980774	971.647400	2773.859863	1358.485962	21.464649
779.293640	994.402588	2767.033203	1410.822876	23.491655
779.606567	967.096313	2803.441650	1467.710938	27.261463
779.919434	935.239075	2771.584229	1394.894287	25.030981
780.232239	914.759338	2714.696289	1454.057739	29.962070
780.544983	923.861450	2835.298828	1422.200562	26.071432
780.857666	953.443237	2817.094727	1431.302612	25.641027
781.170227	932.963501	2653.257324	1415.373901	28.042326
781.482849	901.106262	2771.584229	1360.761475	24.574211
781.795410	964.820801	2807.992676	1481.364014	28.024691
782.107910	957.994263	2676.012451	1410.822876	26.357615
782.420288	914.759338	2628.226563	1360.761475	26.029219
782.732666	1005.780212	2694.216553	1365.312500	21.293802
783.044983	1026.259888	2612.297852	1376.690063	22.094690
783.357300	1017.157776	2605.471436	1401.720825	24.212034
783.669495	1083.147949	2678.288086	1385.792114	18.972889
783.981689	942.065613	2707.869873	1388.067749	25.257734
784.293762	1001.229126	2632.777588	1322.077637	19.665276
784.605835	1046.739624	2569.062988	1358.485962	20.478325
784.917908	1035.361938	2666.910400	1449.506714	25.383541
785.229858	978.473938	2532.654541	1385.792114	26.207905
785.541748	935.239075	2459.837891	1297.046875	23.731344
785.853577	942.065613	2582.716064	1274.291626	20.249653
786.165405	1030.810913	2523.552490	1358.485962	21.951223
786.477173	1021.708862	2537.205811	1344.832764	21.321316
786.788879	989.851563	2521.277100	1435.853638	29.123327
787.100525	971.647400	2530.379150	1333.455200	23.211679
787.412109	928.412476	2478.042236	1410.822876	31.130688
787.723694	898.830688	2450.735840	1399.445313	32.258068
788.035156	948.892151	2478.042236	1426.751587	31.250002
788.346558	951.167725	2612.297852	1426.751587	28.630138
788.658081	960.269775	2807.992676	1388.067749	23.152712
788.969360	944.341125	2685.114502	1458.608887	29.542486
789.280640	1014.882263	2707.869873	1388.067749	22.043015
789.591919	946.616638	2748.829102	1424.476074	26.515156
789.903076	953.443237	2814.819336	1481.364014	28.361855
790.214172	973.922913	2753.380127	1413.098389	24.680305
790.525269	964.820801	2662.359375	1415.373901	26.541553
790.836365	973.922913	2682.839111	1344.832764	21.704390
791.147339	948.892151	2557.685303	1394.894287	27.722776
791.458191	1014.882263	2537.205811	1312.975464	19.581463
791.769104	994.402588	2516.726074	1406.271851	27.055305
792.079895	1026.259888	2455.286865	1431.302612	28.343952
792.390686	1035.361938	2380.194824	1369.863525	24.873096
792.701416	1028.535400	2334.684326	1319.802124	22.299656
793.012085	939.790100	2402.949951	1349.383789	27.993774
793.322693	937.514587	2443.909424	1335.730713	26.435043
793.633240	967.096313	2453.011475	1324.353149	24.042883
793.943787	980.749451	2400.674561	1290.220337	21.794874
794.254272	953.443237	2357.439453	1392.618774	31.280394
794.564636	1012.606750	2375.643799	1392.618774	27.879801
794.875000	939.790100	2357.439453	1365.312500	30.016052
795.185303	1026.259888	2414.327637	1331.179688	21.967213
795.495544	1037.637451	2325.582275	1299.322388	20.318024
795.805786	985.300537	2466.664551	1317.526489	22.427031
796.115906	998.953613	2418.878662	1401.720825	28.365385
796.426025	928.412476	2327.857666	1374.414551	31.869921
796.736023	987.576050	2421.154053	1358.485962	25.873018
797.045959	935.239075	2434.807373	1524.598877	39.301964
797.355896	985.300537	2596.369141	1403.996338	25.988701
797.665833	944.341125	2437.082764	1319.802124	25.152443
797.975708	967.096313	2514.450439	1308.424438	22.058825
798.285461	1003.504700	2491.695313	1410.822876	27.370026
798.595154	921.585938	2503.072998	1367.588013	28.201437
798.904846	955.718750	2487.144287	1317.526489	23.625551
799.214478	1026.259888	2352.888428	1415.373901	29.331045
799.524109	953.443237	2471.215576	1292.495850	22.338833
799.833557	887.453125	2414.327637	1406.271851	33.979134
800.143005	998.953613	2396.123291	1299.322388	21.498375
800.452393	992.127075	2368.817139	1356.210449	26.446285
800.761780	976.198425	2359.715088	1283.393677	22.203943
801.071106	1023.984375	2366.541748	1312.975464	21.525417
801.380371	923.861450	2261.867676	1274.291626	26.190474
801.689575	957.994263	2230.010498	1267.465088	24.329157
801.998718	951.167725	2243.663574	1324.353149	28.873240
802.307800	946.616638	2323.306641	1326.628662	27.603312
802.616882	987.576050	2261.867676	1342.557251	27.857140
802.925903	1021.708862	2250.489990	1285.669312	21.481485
803.234863	932.963501	2141.265137	1297.046875	30.131828
803.543701	1023.984375	2268.694336	1312.975464	23.217545
803.852539	955.718750	2159.469238	1267.465088	25.897921
804.161316	967.096313	2141.265137	1333.455200	31.201551
804.470032	957.994263	2202.704102	1306.148926	27.970749
804.778809	1008.055725	2280.071777	1256.087524	19.499107
805.087341	923.861450	2175.397949	1294.771362	29.636364
805.395935	1012.606750	2195.877686	1322.077637	26.153847
805.704468	964.820801	2173.122314	1283.393677	26.365347
806.012939	964.820801	2293.724854	1278.842651	23.630136
806.321350	962.545288	2261.867676	1308.424438	26.619965
806.629761	964.820801	2273.245361	1253.812012	22.086960
806.938049	889.728638	2341.510986	1297.046875	28.056425
807.246277	1014.882263	2227.734863	1294.771362	23.076927
807.554504	992.127075	2204.979736	1369.863525	31.144463
807.862671	971.647400	2234.561523	1322.077637	27.747749
808.170715	894.279663	2314.204590	1349.383789	32.051281
808.478821	944.341125	2113.958740	1308.424438	31.128405
808.786804	1008.055725	2157.193604	1244.709839	20.594057
809.094727	989.851563	2184.500000	1312.975464	27.047615
809.402649	1003.504700	2259.592041	1253.812012	19.927540
809.710510	1037.637451	2095.754639	1210.577026	16.344086
810.018311	983.024963	2095.754639	1303.873413	28.834356
810.326050	1008.055725	2027.489014	1299.322388	28.571430
810.633667	1012.606750	2143.540527	1194.648438	16.096582
810.941345	1021.708862	2111.683350	1251.536499	21.085598
811.248901	960.269775	2029.764526	1301.597900	31.914894
811.556396	960.269775	2034.315552	1208.301514	23.093218
811.863892	935.239075	2054.795166	1258.363037	28.861792
812.171326	944.341125	2043.417725	1226.505737	25.672878
812.478699	967.096313	2036.591064	1231.056763	24.680855
812.786011	953.443237	2036.591064	1338.006226	35.504200
813.093262	921.585938	2027.489014	1240.158813	28.806581
813.400391	921.585938	2123.060791	1226.505737	25.378792
813.707642	939.790100	2018.386963	1240.158813	27.848097
814.014709	944.341125	2059.346436	1260.638550	28.367346
814.321716	1026.259888	2077.550537	1262.914063	22.510822
814.628723	955.718750	2154.918213	1165.066650	17.457304
814.935669	1037.637451	2011.560425	1237.883301	20.560749
815.242554	1010.331238	1970.601074	1206.026001	20.379143
815.549438	978.473938	2041.142212	1310.699951	31.263382
815.856201	948.892151	1991.080688	1180.995239	22.270741
816.162964	1012.606750	2022.937988	1347.108276	33.108105
816.469604	1001.229126	2084.376953	1269.740601	24.789919
816.776184	878.351013	2020.662476	1235.607788	31.274899
817.082825	964.820801	2127.612061	1226.505737	22.504894
817.389343	955.718750	2041.142212	1228.781250	25.157232
817.695801	866.973450	2059.346436	1199.199463	27.862591
818.002197	1037.637451	2075.274902	1301.597900	25.438601
818.308533	1033.086426	2070.723877	1290.220337	24.780708
818.614868	1023.984375	2166.295898	1237.883301	18.725096
818.921143	935.239075	2116.234375	1269.740601	28.323694
819.227356	960.269775	2061.621826	1244.709839	25.826443
819.533447	919.310425	2054.795166	1292.495850	32.865738
819.839539	948.892151	2152.642578	1312.975464	30.245747
820.145569	917.034912	2164.020264	1342.557251	34.124084
820.451538	969.371887	2318.755615	1306.148926	24.957840
820.757568	1026.259888	2496.246338	1360.761475	22.755421
821.063416	957.994263	2650.981689	1469.986450	30.241938
821.369263	969.371887	2721.522949	1456.333252	27.792202
821.675049	946.616638	2860.329590	1365.312500	21.878719
821.980713	946.616638	3001.411865	1442.680176	24.141750
822.286438	894.279663	3342.739990	1672.507813	31.784388
822.592102	951.167725	4150.549805	1836.345337	27.667143
822.897583	971.647400	6237.202637	2302.827148	25.280899
823.203125	976.198425	8794.887695	2946.799316	25.203724
823.508545	946.616638	10378.650391	3272.198975	24.656212
823.813965	894.279663	10824.652344	3451.965088	25.756187
824.119263	996.678101	9841.627930	3206.208740	24.980703
824.424622	976.198425	8301.099609	2871.707275	25.877602
824.729858	985.300537	6979.022461	2621.399902	27.296886
825.035095	989.851563	6162.110352	2375.643799	26.792786
825.340149	937.514587	5295.136719	2084.376953	26.318535
825.645264	994.402588	4894.645020	2079.825928	27.829638
825.950256	928.412476	4541.939453	2013.835938	30.037786
826.255310	980.749451	4271.152344	1815.865601	25.380362
826.560242	1055.841675	4016.294189	1697.538574	21.675634
826.865112	973.922913	3743.231689	1692.987427	25.965487
827.169922	1026.259888	3681.792725	1606.517700	21.850901
827.474670	960.269775	3734.129639	1667.956787	25.512716
827.779419	983.024963	4289.356934	1802.212524	24.776325
828.084045	987.576050	4744.460938	1961.498901	25.923681
828.388672	969.371887	5288.310547	2136.714111	27.028454
828.693176	955.718750	5019.798828	2063.897461	27.267639
828.997681	971.647400	4548.766113	1984.254150	28.307888
829.302124	1042.188477	4050.427002	1781.732788	24.583965
829.606567	973.922913	3538.434814	1574.660400	23.425022
829.910828	953.443237	3306.331787	1545.078613	25.145065
830.215149	1071.770264	3017.340576	1483.639526	21.169590
830.519348	983.024963	2883.084961	1504.119263	27.425148
830.823547	901.106262	2826.196777	1413.098389	26.595741
831.127686	957.994263	2573.614014	1433.578125	29.436621
831.431763	998.953613	2512.175049	1317.526489	21.052628
831.735779	1033.086426	2261.867676	1347.108276	25.555553
832.039734	1012.606750	2266.418701	1331.179688	25.408350
832.343628	1003.504700	2125.336426	1315.250977	27.789040
832.647461	1012.606750	2157.193604	1272.016113	22.664017
832.951233	1014.882263	2239.112549	1274.291626	21.189590
833.255127	1046.739624	2143.540527	1246.985352	18.257254
833.558777	973.922913	2239.112549	1201.474976	17.985609
833.862366	1019.433350	2437.082764	1363.036987	24.237560
834.165955	957.994263	2637.328613	1394.894287	26.016262
834.469482	998.953613	2946.799316	1444.955688	22.897198
834.773010	980.749451	3397.352539	1604.242188	25.800379
835.076416	948.892151	3606.700439	1663.405762	26.883564
835.379822	957.994263	3549.812500	1633.823975	26.075504
835.683105	939.790100	3297.229736	1645.201538	29.922777
835.986389	1042.188477	2992.309814	1469.986450	21.936993
836.289612	976.198425	2771.584229	1392.618774	23.193920
836.592773	987.576050	2621.399902	1440.404663	27.715878
836.895874	957.994263	2519.001465	1333.455200	24.052479
837.198914	1001.229126	2407.500977	1415.373901	29.449837
837.501892	996.678101	2350.613037	1290.220337	21.680676
837.804871	866.973450	2275.520752	1338.006226	33.441032
838.107666	962.545288	2148.091553	1237.883301	23.224569
838.410583	1042.188477	2018.386963	1183.270874	14.452225
838.713379	969.371887	1929.641602	1297.046875	34.123222
839.016052	969.371887	1920.539551	1196.923950	23.923445
839.318787	983.024963	1852.273926	1171.893188	21.727749
839.621338	998.953613	1784.008301	1196.923950	25.217394
839.923889	1014.882263	1815.865601	1246.985352	28.977268
840.226440	1080.872437	1784.008301	1167.342163	12.297727
840.528931	1005.780212	1947.845825	1242.434326	25.120768
840.831299	976.198425	1988.805176	1185.546387	20.674162
841.133606	942.065613	2134.438477	1240.158813	25.000000
841.435913	942.065613	2084.376953	1265.189575	28.286858
841.738220	1008.055725	1925.090576	1276.567139	29.280394
842.040405	983.024963	1950.121338	1235.607788	26.117647
842.342529	1001.229126	1849.998413	1237.883301	27.882038
842.644592	923.861450	1872.753662	1174.168701	26.378891
842.946594	983.024963	1772.630737	1180.995239	25.072041
843.248596	928.412476	1777.181763	1183.270874	30.026817
843.550598	960.269775	1733.946899	1142.311401	23.529406
843.852478	969.371887	1708.916138	1226.505737	34.769230
844.154236	1044.463989	1702.089600	1176.444214	20.069204
844.455994	978.473938	1649.752563	1244.709839	39.661015
844.757690	967.096313	1624.721802	1185.546387	33.218006
845.059326	1046.739624	1645.201538	1042.188477	-0.760474
845.360962	953.443237	1588.313477	1103.627563	23.655909
845.662476	914.759338	1488.190552	1174.168701	45.238094
845.963989	957.994263	1504.119263	1105.903076	27.083326
846.265381	951.167725	1558.731689	1069.494751	19.475649
846.566772	935.239075	1515.496826	1108.178589	29.803913
846.868042	912.483826	1465.435425	1076.321289	29.629622
847.169373	973.922913	1529.150024	1094.525513	21.721310
847.470581	923.861450	1517.772339	1119.556274	32.950199
847.771729	1017.157776	1481.364014	1055.841675	8.333344
848.072815	976.198425	1513.221313	1162.791138	34.745766
848.373901	992.127075	1551.905151	1092.250000	17.886183
848.674866	926.136963	1435.853638	1074.045776	29.017849
848.975891	942.065613	1401.720825	1017.157776	16.336628
849.276794	964.820801	1510.945801	1076.321289	20.416660
849.577637	960.269775	1581.486938	1046.739624	13.919424
849.878357	1003.504700	1451.782227	1140.035889	30.456844
850.179077	955.718750	1463.159912	1160.515625	40.358742
850.479736	987.576050	1417.649414	1121.831787	31.216938
850.780396	992.127075	1415.373901	1055.841675	15.053769
851.080994	1017.157776	1499.568237	1067.219238	10.377358
851.381470	1023.984375	1440.404663	1076.321289	12.568291
851.681946	951.167725	1410.822876	1028.535400	16.831678
851.982361	1019.433350	1403.996338	1076.321289	14.792879
852.282715	955.718750	1454.057739	1044.463989	17.808207
852.583008	962.545288	1351.659302	1087.698975	32.163757
852.883240	983.024963	1403.996338	1060.392700	18.378384
853.183411	930.687988	1454.057739	1071.770264	26.956520
853.483521	1005.780212	1415.373901	1115.005249	26.666679
853.783630	951.167725	1422.200562	1089.974487	29.468596
854.083679	1069.494751	1399.445313	1060.392700	-2.758610
854.383667	962.545288	1390.343262	1121.831787	37.234047
854.683533	898.830688	1442.680176	1092.250000	35.564861
854.983337	976.198425	1363.036987	1080.872437	27.058836
855.283203	969.371887	1431.302612	1105.903076	29.556637
855.582886	971.647400	1467.710938	1042.188477	14.220170
855.882629	960.269775	1413.098389	1078.596802	26.130642
856.182312	994.402588	1401.720825	1051.290649	13.966490
856.481873	1014.882263	1426.751587	1074.045776	14.364632
856.781372	1037.637451	1390.343262	1130.933838	26.451616
857.080872	987.576050	1338.006226	1108.178589	34.415569
857.380310	935.239075	1376.690063	1012.606750	17.525768
857.679688	964.820801	1335.730713	1076.321289	30.061340
857.979004	973.922913	1367.588013	1092.250000	30.057804
858.278259	935.239075	1360.761475	1096.801025	37.967907
858.577454	914.759338	1360.761475	1092.250000	39.795921
858.876648	953.443237	1365.312500	1055.841675	24.861879
859.175720	960.269775	1417.649414	1080.872437	26.368174
859.474792	973.922913	1335.730713	1062.668213	24.528299
859.773743	1017.157776	1358.485962	1039.912964	6.666659
860.072693	1014.882263	1415.373901	1005.780212	-2.272719
860.371521	1012.606750	1433.578125	1067.219238	12.972969
860.670349	987.576050	1315.250977	983.024963	-1.388903
860.969116	967.096313	1481.364014	1108.178589	27.433626
861.267883	957.994263	1322.077637	1069.494751	30.624989
861.566589	946.616638	1285.669312	1051.290649	30.872492
861.865112	1014.882263	1422.200562	1026.259888	2.793301
862.163635	994.402588	1365.312500	1021.708862	7.361969
862.462158	1010.331238	1369.863525	1005.780212	-1.265818
862.760620	964.820801	1394.894287	1021.708862	13.227521
863.059021	967.096313	1408.547363	1092.250000	28.350525
863.357361	1010.331238	1390.343262	1121.831787	29.341322
863.655640	1053.566162	1335.730713	1142.311401	31.451591
863.953857	910.208313	1365.312500	1064.943726	33.999996
864.251953	973.922913	1435.853638	1035.361938	13.300485
864.550110	980.749451	1344.832764	1142.311401	44.374996
864.848206	905.657288	1340.281738	1058.117188	35.078537
865.146179	1012.606750	1347.108276	1160.515625	44.217697
865.444092	980.749451	1287.944824	1083.147949	33.333347
865.741943	985.300537	1422.200562	1033.086426	10.937489
866.039795	976.198425	1349.383789	1115.005249	37.195141
866.337646	989.851563	1351.659302	1069.494751	22.012571
866.635376	996.678101	1435.853638	1049.015137	11.917111
866.933044	969.371887	1435.853638	1137.760376	36.097549
867.230652	994.402588	1426.751587	1062.668213	15.789473
867.528198	937.514587	1333.455200	1099.076538	40.804592
867.825745	962.545288	1406.271851	1146.862427	41.538452
868.123230	983.024963	1333.455200	1055.841675	20.779232
868.420593	985.300537	1338.006226	1092.250000	30.322580
868.717896	926.136963	1449.506714	1069.494751	27.391302
869.015198	953.443237	1365.312500	1071.770264	28.729269
869.312439	896.555176	1312.975464	1049.015137	36.612041
869.609619	889.728638	1374.414551	1092.250000	41.784042
869.906738	942.065613	1369.863525	1010.331238	15.957447
870.203796	946.616638	1415.373901	1074.045776	27.184462
870.500854	964.820801	1376.690063	1035.361938	17.127069
870.797791	892.004150	1324.353149	1078.596802	43.157879
871.094666	973.922913	1394.894287	1062.668213	21.081078
871.391602	1010.331238	1342.557251	1087.698975	23.287682
871.688293	992.127075	1328.904175	1089.974487	29.054058
871.985107	969.371887	1358.485962	1105.903076	35.087704
872.281738	994.402588	1358.485962	1103.627563	29.999990
872.578369	998.953613	1347.108276	1121.831787	35.294136
872.874939	907.932800	1381.241089	1001.229126	19.711535
873.171509	910.208313	1388.067749	1060.392700	31.428570
873.467957	957.994263	1317.526489	1019.433350	17.088617
873.764343	919.310425	1365.312500	1112.729614	43.367329
874.060669	937.514587	1326.628662	1021.708862	21.637426
874.356995	953.443237	1338.006226	989.851563	9.467454
874.653198	1005.780212	1378.965576	1108.178589	27.439013
874.949463	907.932800	1338.006226	1053.566162	33.862442
875.245544	1017.157776	1358.485962	967.096313	-14.666665
875.541626	973.922913	1417.649414	1014.882263	9.230765
875.837646	985.300537	1317.526489	1074.045776	26.712315
876.133606	960.269775	1365.312500	1044.463989	20.786503
876.429565	971.647400	1353.934937	1033.086426	16.071417
876.725403	994.402588	1317.526489	1076.321289	25.352102
877.021179	994.402588	1403.996338	1060.392700	16.111113
877.316956	962.545288	1403.996338	1062.668213	22.680414
877.612610	919.310425	1365.312500	1076.321289	35.204067
877.908203	987.576050	1526.874512	1042.188477	10.126568
878.203857	951.167725	1397.169800	1085.423462	30.102043
878.499390	953.443237	1419.924927	1124.107300	36.585373
878.794800	989.851563	1381.241089	1085.423462	24.418615
879.090271	987.576050	1372.139038	1074.045776	22.485191
879.385559	921.585938	1435.853638	1130.933838	40.707962
879.680847	998.953613	1403.996338	1153.689087	38.202259
879.976196	1005.780212	1483.639526	1105.903076	20.952374
880.271301	957.994263	1515.496826	1133.209351	31.428572
880.566467	992.127075	1556.456177	1149.138062	27.822592
880.861572	994.402588	1624.721802	1137.760376	22.743681
881.156555	869.248962	1820.416626	1105.903076	24.880379
881.451477	973.922913	2004.733887	1235.607788	25.386309
881.746460	1019.433350	2703.318604	1369.863525	20.810810
882.041321	921.585938	3431.485352	1531.425537	24.297373
882.336121	905.657288	4384.928711	1786.283813	25.310659
882.630798	932.963501	4644.337891	1749.875488	22.011036
882.925537	914.759338	4803.624512	1849.998413	24.049150
883.220215	1017.157776	4485.051270	1724.844727	20.406824
883.514771	910.208313	4068.631104	1681.609863	24.423632
883.809326	907.932800	3690.894775	1620.170776	25.592804
884.103760	942.065613	3458.791504	1567.833862	24.864380
884.398132	917.034912	3217.586426	1460.884399	23.639961
884.692505	889.728638	3106.085938	1454.057739	25.462008
884.986816	946.616638	2899.013428	1356.210449	20.979025
885.281067	1001.229126	2714.696289	1340.281738	19.787518
885.575256	1012.606750	2514.450439	1310.699951	19.848482
885.869385	1014.882263	2371.092773	1308.424438	21.644295
886.163452	989.851563	2118.509766	1228.781250	21.169357
886.457458	1019.433350	2011.560425	1219.679199	20.183489
886.751465	1046.739624	1861.375977	1240.158813	23.743010
887.045410	962.545288	1665.681274	1174.168701	30.097082
887.339233	962.545288	1647.477051	1087.698975	18.272432
887.632996	971.647400	1613.344238	1171.893188	31.205669
887.926758	960.269775	1520.047852	1130.933838	30.487808
888.220398	1042.188477	1592.864502	1135.484863	16.942156
888.514099	1012.606750	1506.394775	1099.076538	17.511520
888.807678	1010.331238	1501.843750	1101.352051	18.518515
889.101196	932.963501	1510.945801	1128.658325	33.858273
889.394653	962.545288	1508.670288	1076.321289	20.833326
889.688049	978.473938	1538.252075	1064.943726	15.447153
889.981384	1010.331238	1460.884399	1042.188477	7.070695
890.274719	1017.157776	1413.098389	1019.433350	0.574726
890.567932	948.892151	1388.067749	1078.596802	29.533665
>>>>>End Processed Spectral Data<<<<<
