Jaz Data File
++++++++++++++++++++++++++++++++++++
Date: Wed Feb 07 06:49:09 2024
User: jaz
Dark Spectrum Present: Yes
Reference Spectrum Present: Yes
Processed Spectrum Present: Yes
Spectrometers: JAZA3692
Integration Time (usec): 40000 (JAZA3692)
Spectra Averaged: 1 (JAZA3692)
Boxcar Smoothing: 0 (JAZA3692)
Correct for Electrical Dark: No (JAZA3692)
Strobe/Lamp Enabled: Yes (JAZA3692)
Correct for Detector Non-linearity: No (JAZA3692)
Correct for Stray Light: No (JAZA3692)
Number of Pixels in Processed Spectrum: 2048
>>>>>Begin Processed Spectral Data<<<<<
W	D	R	S	P
190.244385	0.000000	0.000000	0.000000	0.000000
190.627136	0.000000	0.000000	0.000000	0.000000
191.009842	971.647400	973.922913	962.545288	-400.002686
191.392532	1005.780212	971.647400	967.096313	113.333466
191.775177	1010.331238	1008.055725	973.922913	1600.005371
192.157791	998.953613	969.371887	1005.780212	-23.077082
192.540390	1026.259888	987.576050	998.953613	70.588326
192.922943	1017.157776	1030.810913	971.647400	-333.332733
193.305481	1058.117188	939.790100	955.718750	86.538460
193.687958	1105.903076	1035.361938	1044.463989	87.096817
194.070419	1085.423462	1010.331238	1049.015137	48.484814
194.452866	1103.627563	1171.893188	1049.015137	-79.999893
194.835251	1012.606750	998.953613	1019.433350	-50.000225
195.217621	1055.841675	1064.943726	1017.157776	-425.002014
195.599960	1071.770264	1035.361938	1046.739624	68.749771
195.982254	1076.321289	1089.974487	1051.290649	-183.331696
196.364517	1028.535400	1039.912964	1058.117188	260.001068
196.746750	1033.086426	1076.321289	1001.229126	-73.684288
197.128952	1021.708862	1035.361938	1023.984375	16.666666
197.511139	1051.290649	1074.045776	1014.882263	-160.000809
197.893280	983.024963	1087.698975	1042.188477	56.521683
198.275391	1042.188477	1035.361938	1042.188477	-0.000000
198.657471	1089.974487	1037.637451	1069.494751	39.130486
199.039520	1046.739624	1069.494751	1083.147949	160.000534
199.421539	1017.157776	1064.943726	1105.903076	185.714218
199.803513	1083.147949	973.922913	1103.627563	-18.749928
200.185471	1008.055725	1012.606750	985.300537	-500.001343
200.567383	1033.086426	1071.770264	985.300537	-123.529335
200.949265	1030.810913	1005.780212	1010.331238	81.818230
201.331131	1012.606750	1083.147949	1055.841675	61.290318
201.712967	1026.259888	1044.463989	1033.086426	37.500000
202.094742	1012.606750	1035.361938	1021.708862	40.000160
202.476517	1058.117188	1046.739624	1044.463989	120.001076
202.858231	1039.912964	1005.780212	1010.331238	86.666687
203.239944	996.678101	1021.708862	1069.494751	290.908661
203.621582	998.953613	1021.708862	1049.015137	219.999893
204.003235	1076.321289	1033.086426	1028.535400	110.526283
204.384827	1049.015137	1033.086426	1035.361938	85.714394
204.766388	1096.801025	985.300537	1005.780212	81.632660
205.147934	992.127075	1042.188477	989.851563	-4.545444
205.529449	1026.259888	1035.361938	1037.637451	125.000000
205.910904	1028.535400	1001.229126	1055.841675	-100.000000
206.292343	1001.229126	1005.780212	998.953613	-49.999329
206.673767	1021.708862	1003.504700	937.514587	462.500122
207.055115	1044.463989	1094.525513	1053.566162	18.181973
207.436462	1023.984375	1005.780212	1019.433350	24.999916
207.817780	1028.535400	1051.290649	955.718750	-319.999359
208.199051	1037.637451	1055.841675	876.075500	-887.497070
208.580307	1053.566162	1026.259888	1008.055725	166.666595
208.961517	983.024963	1012.606750	1005.780212	76.923172
209.342712	1026.259888	1058.117188	1037.637451	35.714149
209.723846	1001.229126	1030.810913	955.718750	-153.845932
210.104965	1078.596802	1055.841675	948.892151	570.001892
210.486069	998.953613	1094.525513	1026.259888	28.571447
210.867111	1008.055725	1069.494751	942.065613	-107.407486
211.248123	992.127075	1055.841675	957.994263	-53.571415
211.629120	1003.504700	1019.433350	962.545288	-257.143036
212.010071	1026.259888	1053.566162	1062.668213	133.333191
212.390991	1001.229126	1099.076538	1001.229126	0.000000
212.771881	1012.606750	1026.259888	1012.606750	0.000000
213.152756	1012.606750	1044.463989	971.647400	-128.571564
213.533569	969.371887	1044.463989	951.167725	-24.242447
213.914368	1003.504700	1051.290649	987.576050	-33.333332
214.295135	1051.290649	1099.076538	992.127075	-123.809715
214.675858	1033.086426	980.749451	964.820801	130.434799
215.056549	1019.433350	964.820801	1053.566162	-62.499943
215.437225	996.678101	1046.739624	989.851563	-13.636297
215.817841	937.514587	1019.433350	957.994263	24.999981
216.198441	921.585938	1074.045776	1003.504700	53.731373
216.579025	964.820801	1049.015137	983.024963	21.621599
216.959549	1019.433350	1042.188477	1012.606750	-30.000269
217.340057	1033.086426	987.576050	998.953613	75.000069
217.720535	996.678101	1021.708862	992.127075	-18.181730
218.100967	957.994263	1069.494751	1049.015137	81.632713
218.481369	1035.361938	1069.494751	983.024963	-153.333328
218.861740	1133.209351	1042.188477	978.473938	169.999924
219.242065	1010.331238	1112.729614	1005.780212	-4.444431
219.622391	1051.290649	1089.974487	1026.259888	-64.705994
220.002670	1060.392700	1115.005249	992.127075	-124.999886
220.382919	1001.229126	1153.689087	1019.433350	11.940331
220.763123	1096.801025	1039.912964	901.106262	343.999695
221.143295	1028.535400	1096.801025	955.718750	-106.666641
221.523453	1060.392700	1099.076538	994.402588	-170.588333
221.903549	1008.055725	1101.352051	1008.055725	0.000000
222.283630	1051.290649	1026.259888	1035.361938	63.636539
222.663696	1010.331238	1046.739624	985.300537	-68.749825
223.043701	989.851563	1039.912964	939.790100	-100.000122
223.423676	967.096313	1044.463989	960.269775	-8.823502
223.803635	1051.290649	1067.219238	996.678101	-342.858673
224.183548	1010.331238	1135.484863	1017.157776	5.454527
224.563431	1049.015137	1062.668213	946.616638	-750.003113
224.943283	1071.770264	1035.361938	1023.984375	131.249893
225.323105	1010.331238	1078.596802	951.167725	-86.666702
225.702881	994.402588	973.922913	946.616638	233.333527
226.082642	1014.882263	1046.739624	1001.229126	-42.857090
226.462357	1026.259888	1028.535400	1044.463989	800.000000
226.842041	1026.259888	1083.147949	926.136963	-175.999893
227.221695	1035.361938	1089.974487	992.127075	-79.166534
227.601318	1010.331238	1087.698975	969.371887	-52.941124
227.980911	969.371887	1105.903076	983.024963	9.999969
228.360474	996.678101	1078.596802	1005.780212	11.111153
228.739990	1042.188477	1085.423462	1051.290649	21.052795
229.119476	998.953613	1183.270874	1080.872437	44.444466
229.498932	1044.463989	1178.719727	1014.882263	-22.033863
229.878372	1060.392700	1096.801025	1023.984375	-100.000000
230.257736	969.371887	1294.771362	1017.157776	14.685300
230.637115	978.473938	1217.403687	1099.076538	50.476177
231.016449	930.687988	1267.465088	1023.984375	27.702711
231.395737	976.198425	1176.444214	1083.147949	53.409126
231.774994	1037.637451	1215.128052	1014.882263	-12.820503
232.154221	987.576050	1190.097412	976.198425	-5.617987
232.533417	1008.055725	1242.434326	944.341125	-27.184479
232.912582	1037.637451	1192.372925	1037.637451	0.000000
233.291702	1033.086426	1180.995239	983.024963	-33.846165
233.670792	989.851563	1153.689087	1026.259888	22.222214
234.049866	1026.259888	1124.107300	1044.463989	18.604582
234.428894	1014.882263	1105.903076	1014.882263	0.000000
234.807892	992.127075	1187.821899	1085.423462	47.674427
235.186874	1008.055725	1155.964600	1023.984375	10.769232
235.565781	1044.463989	1262.914063	983.024963	-28.124973
235.944687	985.300537	1240.158813	1001.229126	6.249979
236.323547	992.127075	1160.515625	983.024963	-5.405422
236.702377	1026.259888	1215.128052	1076.321289	26.506002
237.081177	1062.668213	1224.230225	1017.157776	-28.169022
237.459946	1028.535400	1187.821899	1014.882263	-8.571434
237.838669	1003.504700	1269.740601	987.576050	-5.982908
238.217361	1035.361938	1176.444214	1042.188477	4.838693
238.596039	1017.157776	1224.230225	1026.259888	4.395617
238.974670	1053.566162	1176.444214	1003.504700	-40.740768
239.353271	1028.535400	1190.097412	1062.668213	21.126757
239.731842	1128.658325	1265.189575	1028.535400	-73.333336
240.110367	1058.117188	1285.669312	1044.463989	-6.000031
240.488876	1023.984375	1290.220337	932.963501	-34.188046
240.867340	1035.361938	1283.393677	992.127075	-17.431181
241.245789	955.718750	1335.730713	919.310425	-9.580836
241.624176	930.687988	1374.414551	971.647400	9.230778
242.002548	1026.259888	1353.934937	1010.331238	-4.861112
242.380890	1026.259888	1415.373901	1017.157776	-2.339189
242.759186	948.892151	1501.843750	1003.504700	9.876552
243.137451	1049.015137	1501.843750	998.953613	-11.055291
243.515686	1044.463989	1581.486938	1058.117188	2.542386
243.893890	998.953613	1686.160889	1155.964600	22.847691
244.272049	1094.525513	1561.007324	1092.250000	-0.487803
244.650192	1014.882263	1474.537476	1030.810913	3.465347
245.028290	1112.729614	1483.639526	1012.606750	-26.993849
245.406357	951.167725	1501.843750	1069.494751	21.487593
245.784393	985.300537	1451.782227	1035.361938	10.731697
246.162384	1026.259888	1481.364014	1080.872437	12.000011
246.540359	1087.698975	1504.119263	1046.739624	-9.836061
246.918289	1037.637451	1649.752563	1030.810913	-1.115238
247.296204	1033.086426	1713.467163	1062.668213	4.347828
247.674057	992.127075	1954.672363	1151.413574	16.548468
248.051895	955.718750	2175.397949	1162.791138	16.977612
248.429703	1012.606750	2120.785400	1092.250000	7.186860
248.807465	985.300537	2104.856689	1083.147949	8.739840
249.185196	1067.219238	2034.315552	1180.995239	11.764702
249.562897	1033.086426	1827.243164	1092.250000	7.449861
249.940567	998.953613	1774.906250	1124.107300	16.129036
250.318192	1076.321289	1681.609863	1042.188477	-5.639097
250.695801	1085.423462	1674.783325	1037.637451	-8.108121
251.073349	1014.882263	1558.731689	1078.596802	11.715474
251.450882	1044.463989	1611.068726	1133.209351	15.662658
251.828400	1053.566162	1492.741699	1092.250000	8.808286
252.205872	1051.290649	1540.527588	1030.810913	-4.186057
252.583313	1067.219238	1638.375000	1058.117188	-1.593620
252.960693	1014.882263	1729.395752	1069.494751	7.643311
253.338074	1005.780212	1733.946899	1099.076538	12.812496
253.715408	1023.984375	1820.416626	1083.147949	7.428576
254.092682	1074.045776	1679.334351	1153.689087	13.157907
254.469955	1051.290649	1592.864502	1076.321289	4.621833
254.847198	1001.229126	1601.966675	1130.933838	21.590912
255.224365	1035.361938	1517.772339	1096.801025	12.735854
255.601563	1133.209351	1483.639526	1144.586914	3.246742
255.978683	928.412476	1595.140137	1069.494751	21.160406
256.355743	1062.668213	1567.833862	1049.015137	-2.702693
256.732819	1049.015137	1547.354126	1046.739624	-0.456619
257.109894	996.678101	1510.945801	1076.321289	15.486718
257.486877	957.994263	1565.558350	1124.107300	27.340826
257.863831	976.198425	1636.099487	1162.791138	28.275862
258.240753	1060.392700	1704.365112	1155.964600	14.840993
258.617645	989.851563	1638.375000	1096.801025	16.491226
258.994507	996.678101	1731.671387	1146.862427	20.433428
259.371307	1053.566162	1724.844727	1103.627563	7.457620
259.748108	1001.229126	1915.988525	1083.147949	8.955232
260.124878	1008.055725	2100.305664	1130.933838	11.249999
260.501617	1001.229126	2336.959961	1228.781250	17.035776
260.878296	1074.045776	2564.511963	1167.342163	6.259544
261.254944	1074.045776	2650.981689	1224.230225	9.523814
261.631561	976.198425	2519.001465	1144.586914	10.914452
262.008179	1023.984375	2323.306641	1169.617676	11.208405
262.384735	1028.535400	2095.754639	1142.311401	10.660977
262.761261	987.576050	1952.396851	1155.964600	17.452831
263.137695	1033.086426	1865.927002	1142.311401	13.114752
263.514191	1067.219238	1843.171875	1140.035889	9.384162
263.890594	1083.147949	1831.794189	1094.525513	1.519752
264.267029	1030.810913	1831.794189	1133.209351	12.784092
264.643341	973.922913	1925.090576	1053.566162	8.373208
265.019653	1023.984375	1845.447388	1115.005249	11.080338
265.395935	1044.463989	1692.987427	1067.219238	3.508778
265.772217	1085.423462	1777.181763	1026.259888	-8.552637
266.148407	989.851563	1829.518677	1049.015137	7.046075
266.524597	1033.086426	1806.763550	1144.586914	14.411759
266.900726	1026.259888	1888.682251	1060.392700	3.957784
267.276855	1008.055725	1906.886475	1028.535400	2.278480
267.652924	1110.454102	2079.825928	1078.596802	-3.286386
268.028992	1019.433350	2020.662476	1067.219238	4.772723
268.404999	983.024963	2050.244141	1094.525513	10.447764
268.781006	1044.463989	2077.550537	1078.596802	3.303964
269.156921	1067.219238	2104.856689	1094.525513	2.631581
269.532837	996.678101	2034.315552	1124.107300	12.280705
269.908661	989.851563	2072.999512	1110.454102	11.134447
270.284546	1051.290649	1993.356201	1126.382813	7.971013
270.660339	1033.086426	2025.213501	1069.494751	3.669724
271.036133	1003.504700	2168.571289	1049.015137	3.906252
271.411835	1026.259888	2143.540527	1089.974487	5.702650
271.787537	967.096313	2305.102539	1130.933838	12.244900
272.163239	1014.882263	2402.949951	1196.923950	13.114757
272.538849	973.922913	2484.868652	1165.066650	12.650602
272.914459	1019.433350	2564.511963	1187.821899	10.898380
273.290070	1067.219238	2282.347412	1115.005249	3.932590
273.665588	973.922913	2191.326416	1105.903076	10.841119
274.041046	1019.433350	2280.071777	1064.943726	3.610106
274.416565	971.647400	2211.806152	1046.739624	6.055049
274.791962	996.678101	2302.827148	1149.138062	11.672478
275.167389	1064.943726	2157.193604	1171.893188	9.791666
275.542755	1014.882263	2198.153076	1151.413574	11.538467
275.918060	1017.157776	2175.397949	1074.045776	4.911589
276.293365	1035.361938	2161.744873	1112.729614	6.868683
276.668640	1103.627563	2202.704102	1151.413574	4.347833
277.043854	987.576050	2366.541748	1185.546387	14.356437
277.419037	1037.637451	2311.929199	1155.964600	9.285719
277.794189	1021.708862	2252.765625	1167.342163	11.829942
278.169312	1017.157776	2348.337402	1217.403687	15.042741
278.544373	1028.535400	2323.306641	1194.648438	12.829528
278.919464	1010.331238	2348.337402	1105.903076	7.142855
279.294464	960.269775	2311.929199	1083.147949	9.090913
279.669464	1026.259888	2259.592041	1085.423462	4.797051
280.044403	989.851563	2202.704102	1160.515625	14.071296
280.419312	1046.739624	2293.724854	1124.107300	6.204378
280.794189	1014.882263	2400.674561	1108.178589	6.732346
281.169037	1074.045776	2348.337402	1174.168701	7.857144
281.543854	1037.637451	2407.500977	1105.903076	4.983389
281.918671	1017.157776	2434.807373	1101.352051	5.939004
282.293365	992.127075	2557.685303	1101.352051	6.976743
282.668091	1021.708862	2632.777588	1210.577026	11.723160
283.042786	1028.535400	2767.033203	1203.750488	10.078534
283.417419	1021.708862	2676.012451	1187.821899	10.041266
283.792053	1142.311401	2707.869873	1194.648438	3.343027
284.166595	1023.984375	2632.777588	1192.372925	10.466762
284.541138	1060.392700	2580.440674	1140.035889	5.239518
284.915619	1069.494751	2484.868652	1242.434326	12.218650
285.290100	980.749451	2589.542725	1287.944824	19.094770
285.664520	1064.943726	2739.727051	1324.353149	15.489134
286.038940	1140.035889	2830.747803	1219.679199	4.710638
286.413300	942.065613	2958.177002	1267.465088	16.139956
286.787628	1035.361938	2871.707275	1310.699951	14.993804
287.161896	1046.739624	2905.840088	1278.842651	12.484695
287.536194	1037.637451	2974.105713	1342.557251	15.746181
287.910400	1005.780212	2885.360352	1285.669312	14.891045
288.284607	1005.780212	2716.971924	1235.607788	13.430849
288.658752	1003.504700	2516.726074	1319.802124	20.902256
289.032867	976.198425	2569.062988	1322.077637	21.714289
289.406921	985.300537	2641.879639	1281.118164	17.857140
289.781006	1039.912964	2705.594238	1353.934937	18.852465
290.154999	1126.382813	2710.145264	1349.383789	14.080456
290.529022	1008.055725	2719.247314	1369.863525	21.143616
290.902954	989.851563	2930.870850	1413.098389	21.805389
291.276825	1064.943726	2965.003662	1449.506714	20.239519
291.650757	1014.882263	3060.575439	1429.027100	20.244720
292.024597	1071.770264	3037.820313	1506.394775	22.106483
292.398407	996.678101	2978.656738	1485.915039	24.684269
292.772156	1023.984375	2903.564453	1460.884399	23.244555
293.145905	1017.157776	2819.370361	1424.476074	22.601011
293.519592	1001.229126	2691.941162	1447.231201	26.379541
293.893280	937.514587	2687.390137	1349.383789	23.537058
294.266907	967.096313	2801.166016	1422.200562	24.813902
294.640533	1030.810913	2871.707275	1417.649414	21.013596
295.014069	978.473938	3069.677490	1526.874512	26.224159
295.387604	955.718750	3249.443604	1499.568237	23.710320
295.761078	973.922913	3151.596191	1515.496826	24.869383
296.134552	1014.882263	3062.851074	1372.139038	17.444445
296.507996	1001.229126	3172.075928	1485.915039	22.327045
296.881378	1010.331238	3178.902588	1542.803101	24.554041
297.254730	1010.331238	3383.699463	1533.701050	22.051775
297.628021	962.545288	3545.261475	1738.497925	30.044052
298.001282	937.514587	3684.068115	1724.844727	28.666113
298.374573	1046.739624	3579.394287	1661.130127	24.258755
298.747803	1037.637451	3458.791504	1647.477051	25.187971
299.121002	1060.392700	3401.903564	1590.588989	22.643343
299.494141	973.922913	3185.729004	1549.629639	26.028805
299.867188	1010.331238	3074.228516	1554.180664	26.350607
300.240265	983.024963	3281.301025	1529.150024	23.762379
300.613312	1005.780212	3076.504150	1522.323364	24.945053
300.986328	985.300537	2990.034424	1565.558350	28.944382
301.359314	1023.984375	2889.911377	1551.905151	28.292681
301.732239	1026.259888	2965.003662	1454.057739	22.065723
302.105103	1039.912964	2999.136475	1465.435425	21.718933
302.477997	1026.259888	2896.738037	1517.772339	26.277369
302.850830	1053.566162	3021.891602	1515.496826	23.468206
303.223602	1017.157776	2801.166016	1392.618774	21.045921
303.596375	994.402588	2917.217773	1483.639526	25.443785
303.969116	1005.780212	2710.145264	1472.261963	27.369827
304.341766	978.473938	2805.717041	1495.017212	28.268995
304.714478	998.953613	2839.849854	1438.129150	23.856615
305.087067	1039.912964	2748.829102	1383.516602	20.106524
305.459656	1010.331238	2848.952148	1438.129150	23.267326
305.832214	1021.708862	2710.145264	1456.333252	25.741236
306.204681	1058.117188	2794.339600	1488.190552	24.770638
306.577148	980.749451	2723.798340	1442.680176	26.501307
306.949646	1003.504700	2864.880615	1526.874512	28.117361
307.322021	1021.708862	2812.543701	1506.394775	27.064802
307.694397	978.473938	2801.166016	1463.159912	26.591763
308.066742	1010.331238	2830.747803	1526.874512	28.375006
308.439026	948.892151	2903.564453	1451.782227	25.727589
308.811279	1067.219238	3015.064941	1497.292725	22.079443
309.183502	967.096313	3033.269287	1458.608887	23.788551
309.555695	985.300537	3065.126465	1435.853638	21.663019
309.927887	962.545288	3081.055176	1547.354126	27.604727
310.299988	1012.606750	3078.779541	1508.670288	24.008812
310.672058	1080.872437	3231.239502	1497.292725	19.365078
311.044128	1094.525513	3224.413086	1465.435425	17.414530
311.416168	1087.698975	3265.372314	1517.772339	19.749214
311.788147	951.167725	3106.085938	1529.150024	26.821543
312.160065	992.127075	3215.310791	1535.976563	24.462645
312.531982	1042.188477	3206.208740	1545.078613	23.238699
312.903870	1019.433350	3147.045166	1520.047852	23.529409
313.275696	1037.637451	3062.851074	1517.772339	23.707865
313.647491	1060.392700	3035.544678	1451.782227	19.815666
314.019318	1051.290649	3092.432861	1429.027100	18.506130
314.391022	946.616638	2969.554688	1504.119263	27.559057
314.762726	967.096313	3181.177979	1451.782227	21.891060
315.134369	1030.810913	3231.239502	1488.190552	20.785933
315.505981	980.749451	3304.056152	1497.292725	22.233109
315.877594	1046.739624	3358.668701	1524.598877	20.669285
316.249146	1019.433350	3242.617188	1504.119263	21.801432
316.620636	1014.882263	3071.953125	1499.568237	23.561949
316.992157	1019.433350	3135.667725	1406.271851	18.279568
317.363586	1028.535400	2955.901611	1374.414551	17.945690
317.735016	1049.015137	2792.063965	1394.894287	19.843342
318.106354	1028.535400	2958.177002	1419.924927	20.283016
318.477722	1051.290649	2951.350586	1419.924927	19.401192
318.849060	1008.055725	2996.860840	1449.506714	22.196795
319.220306	1026.259888	2978.656738	1433.578125	20.862471
319.591522	976.198425	3110.636963	1479.088501	23.560766
319.962738	987.576050	3142.494141	1465.435425	22.175293
320.333923	1028.535400	3096.983887	1495.017212	22.552258
320.705017	1051.290649	3081.055176	1556.456177	24.887888
321.076111	1053.566162	3037.820313	1492.741699	22.133028
321.447144	1026.259888	3017.340576	1499.568237	23.771429
321.818176	976.198425	2835.298828	1447.231201	25.336597
322.189178	994.402588	2953.625977	1524.598877	27.061554
322.560120	1023.984375	2880.809326	1481.364014	24.632351
322.931030	944.341125	2996.860840	1422.200562	23.281599
323.301910	983.024963	3040.095703	1449.506714	22.676991
323.672729	1012.606750	3119.739014	1444.955688	20.518356
324.043549	989.851563	3269.923340	1495.017212	22.155691
324.414337	1010.331238	3486.097900	1567.833862	22.518383
324.785095	1058.117188	3554.363525	1504.119263	17.866909
325.155792	948.892151	3672.690674	1597.415649	23.809525
325.526428	1010.331238	3661.312988	1572.384888	21.201717
325.897034	1080.872437	3447.414063	1513.221313	18.269228
326.267670	1012.606750	3436.036377	1492.741699	19.812208
326.638184	962.545288	3451.965088	1563.282837	24.131628
327.008728	1028.535400	3631.731201	1599.691162	21.940561
327.379211	1067.219238	3429.209961	1504.119263	18.497110
327.749634	980.749451	3547.536865	1456.333252	18.528368
328.120026	1060.392700	3392.801514	1510.945801	19.317074
328.490417	996.678101	3438.312012	1481.364014	19.850885
328.860748	992.127075	3379.148438	1517.772339	22.020969
329.231079	996.678101	3317.709229	1531.425537	23.039217
329.601318	1042.188477	3383.699463	1472.261963	18.367348
329.971558	971.647400	3304.056152	1513.221313	23.219511
330.341736	1023.984375	3290.403076	1485.915039	20.381523
330.711914	1014.882263	3317.709229	1497.292725	20.948620
331.082062	948.892151	3351.842041	1499.568237	22.916670
331.452148	998.953613	3299.505127	1570.109375	24.826906
331.822174	1080.872437	3351.842041	1524.598877	19.539074
332.192200	998.953613	3354.117676	1438.129150	18.647345
332.562134	1028.535400	3465.618164	1501.843750	19.421103
332.932129	992.127075	3581.669678	1574.660400	22.495607
333.302063	976.198425	3615.802490	1533.701050	21.120691
333.671906	1067.219238	3811.497314	1515.496826	16.334991
334.041718	1033.086426	3827.426025	1535.976563	17.996744
334.411499	983.024963	3740.956299	1565.558350	21.122112
334.781281	1042.188477	3779.640137	1579.211426	19.617622
335.151001	1078.596802	3843.354736	1654.303589	20.823046
335.520721	1028.535400	3581.669678	1590.588989	22.014259
335.890350	1008.055725	3513.404053	1581.486938	22.888283
336.259979	1028.535400	3663.588379	1549.629639	19.775475
336.629547	1019.433350	3659.037354	1440.404663	15.948276
336.999084	1017.157776	3784.191162	1506.394775	17.680922
337.368622	944.341125	3722.751953	1522.323364	20.802620
337.738098	978.473938	3754.609375	1506.394775	19.016394
338.107513	987.576050	3816.048340	1558.731689	20.193079
338.476898	1058.117188	3743.231689	1554.180664	18.474575
338.846252	932.963501	3795.568604	1542.803101	21.303659
339.215576	1001.229126	3754.609375	1563.282837	20.413225
339.584869	1074.045776	3834.252441	1490.466064	15.086562
339.954132	1033.086426	3745.507324	1592.864502	20.637581
340.323334	1039.912964	3747.782715	1570.109375	19.579836
340.692505	1046.739624	3624.904541	1561.007324	19.947044
341.061646	967.096313	3520.230713	1638.375000	26.292337
341.430786	1026.259888	3706.823486	1624.721802	22.325974
341.799896	992.127075	3661.312988	1565.558350	21.483376
342.168915	1053.566162	3784.191162	1677.058838	22.833332
342.537903	1080.872437	3957.130615	1522.323364	15.348098
342.906830	983.024963	3973.059326	1517.772339	17.884321
343.275757	985.300537	4004.916504	1595.140137	20.195932
343.644684	978.473938	4109.590332	1581.486938	19.258722
344.013550	1030.810913	4139.172363	1522.323364	15.812591
344.382355	973.922913	4227.917480	1649.752563	20.769230
344.751129	960.269775	4357.622559	1645.201538	20.160749
345.119873	1035.361938	4516.908691	1713.467163	19.477125
345.488586	1008.055725	4687.572754	1654.303589	17.563389
345.857269	1028.535400	4896.920898	1736.222412	18.294119
346.225891	1014.882263	4974.288574	1756.702026	18.735632
346.594482	1044.463989	4876.440918	1802.212524	19.774349
346.963043	1049.015137	4940.155762	1752.151001	18.070173
347.331543	983.024963	4539.664063	1822.692139	23.608444
347.700043	1017.157776	4646.613281	1692.987427	18.620689
348.068512	1005.780212	4455.469727	1731.671387	21.042217
348.436951	1039.912964	4218.815430	1674.783325	19.971371
348.805328	1053.566162	4264.326172	1565.558350	15.946136
349.173645	1089.974487	4314.387207	1613.344238	16.231476
349.541931	1078.596802	4232.468750	1663.405762	18.542570
349.910217	1083.147949	4323.489746	1761.253052	20.926962
350.278473	1076.321289	4466.847168	1708.916138	18.657721
350.646667	1049.015137	4523.735352	1681.609863	18.205631
351.014801	996.678101	4514.633301	1677.058838	19.340235
351.382935	1035.361938	4619.307129	1729.395752	19.365078
351.751007	1001.229126	4489.602539	1692.987427	19.830397
352.119049	1094.525513	4573.796875	1695.262939	17.266184
352.487091	1053.566162	4519.184082	1652.028076	17.268549
352.855072	1115.005249	4632.960449	1683.885376	16.170761
353.222992	1001.229126	4737.634277	1704.365112	18.818516
353.590881	955.718750	4785.420410	1806.763550	22.222221
353.958740	996.678101	4976.563965	1740.773438	18.696400
354.326599	1087.698975	5008.421387	1729.395752	16.366800
354.694397	1026.259888	5122.197266	1797.661377	18.833332
355.062134	992.127075	5295.136719	1890.957764	20.888418
355.429840	1046.739624	5297.412598	1854.549438	19.004280
355.797516	948.892151	5402.086426	1875.029175	20.797140
356.165192	1071.770264	5399.811035	1890.957764	18.927443
356.532776	1026.259888	5681.975586	1915.988525	19.110458
356.900360	992.127075	5777.547363	1984.254150	20.732286
357.267883	1010.331238	5977.792969	1952.396851	18.964727
357.635376	1119.556274	6180.314453	2107.132324	19.514389
358.002808	1008.055725	6542.122070	2020.662476	18.297697
358.370270	1046.739624	6769.674316	2018.386963	16.978130
358.737640	1026.259888	6815.184570	2184.500000	20.007862
359.105011	1019.433350	6526.193848	2068.448486	19.049585
359.472321	1030.810913	6271.335449	2022.937988	18.931828
359.839569	1051.290649	6241.753418	1956.947876	17.448486
360.206787	1069.494751	6214.447266	2022.937988	18.531624
360.574005	964.820801	6435.172852	1970.601074	18.386024
360.941193	1021.708862	6888.001465	2159.469238	19.394880
361.308319	994.402588	7156.512695	2198.153076	19.534712
361.675415	983.024963	7732.219727	2305.102539	19.588673
362.042450	1049.015137	8323.855469	2293.724854	17.109787
362.409424	1014.882263	8644.703125	2496.246338	19.415449
362.776428	1010.331238	8606.019531	2498.521729	19.592567
363.143402	980.749451	8287.446289	2446.184814	20.056057
363.510284	994.402588	8014.384277	2293.724854	18.508913
363.877136	1042.188477	7217.952148	2068.448486	16.617540
364.243988	1064.943726	6578.530762	2098.030273	18.737104
364.610779	969.371887	6378.284668	1963.774414	18.384518
364.977539	1021.708862	6262.233398	1970.601074	18.106817
365.344269	1074.045776	6112.048828	1986.529663	18.112017
365.710938	969.371887	6166.661133	1934.192627	18.563923
366.077576	946.616638	5911.803223	1870.478149	18.606783
366.444183	973.922913	5768.445313	1909.161987	19.506407
366.810760	1033.086426	5761.618652	1872.753662	17.757460
367.177277	1046.739624	5918.629395	1884.131226	17.188231
367.543823	1003.504700	5891.323242	2016.111450	20.716948
367.910248	1019.433350	5898.149902	1970.601074	19.496269
368.276642	976.198425	5893.598633	1865.927002	18.093473
368.643036	1001.229126	5659.220215	1881.855713	18.905716
369.009399	1023.984375	5575.025879	1925.090576	19.799999
369.375671	994.402588	5818.506836	1890.957764	18.584904
369.741974	983.024963	5741.139160	1838.620850	17.981827
370.108215	1037.637451	5693.353027	1913.713013	18.817204
370.474396	983.024963	5770.720703	1909.161987	19.344107
370.840546	1039.912964	5859.465820	1918.264038	18.224743
371.206665	930.687988	5893.598633	1824.967651	18.019258
371.572784	994.402588	5823.057617	1906.886475	18.897266
371.938843	1092.250000	6218.998535	1947.845825	16.688858
372.304840	1028.535400	6027.854492	1852.273926	16.477013
372.670807	1105.903076	5875.394531	1900.059814	16.650764
373.036713	957.994263	6021.027832	1936.468262	19.325844
373.402649	969.371887	5752.516602	1836.345337	18.125595
373.768524	955.718750	5795.751465	1988.805176	21.344616
374.134308	985.300537	5909.527344	1920.539551	18.992607
374.500122	1014.882263	6057.436523	1927.366089	18.095667
374.865875	998.953613	6180.314453	1920.539551	17.786562
375.231567	1096.801025	6100.671387	1902.335449	16.098228
375.597260	1003.504700	6153.008301	1895.508789	17.322138
375.962891	1012.606750	6376.009277	1984.254150	18.116251
376.328461	971.647400	6649.071777	2034.315552	18.717436
376.694031	1035.361938	6735.541504	2045.693237	17.724552
377.059540	1026.259888	6983.573242	1961.498901	15.699006
377.425049	1026.259888	7365.860840	2063.897461	16.367554
377.790497	1035.361938	7591.137207	2175.397949	17.389797
378.155945	1003.504700	7739.046387	2189.051025	17.601353
378.521301	1037.637451	7625.270020	2186.775391	17.443867
378.886597	1099.076538	7493.290039	2186.775391	17.010675
379.251892	1051.290649	7181.543457	2059.346436	16.443951
379.617157	1026.259888	6958.542480	2061.621826	17.453011
379.982422	1039.912964	6769.674316	2084.376953	18.228752
380.347595	1026.259888	6619.490234	1956.947876	16.639544
380.712738	1028.535400	6660.449219	1972.876587	16.767677
381.077820	1008.055725	6710.510742	1970.601074	16.879490
381.442902	1060.392700	6626.316406	1966.049927	16.271463
381.807953	994.402588	6662.725098	1984.254150	17.462866
382.172974	1012.606750	6956.267090	2054.795166	17.534456
382.537933	1028.535400	6585.357422	2004.733887	17.567568
382.902832	955.718750	6637.694336	1959.223389	17.661192
383.267700	1142.311401	6853.868652	1981.978638	14.701197
383.632538	980.749451	7006.328613	2000.182739	16.918428
383.997345	1044.463989	7083.696289	2113.958740	17.709118
384.362152	1021.708862	7279.391113	2102.581299	17.272728
384.726898	1044.463989	7197.472168	2109.407715	17.307692
385.091553	1044.463989	7429.575195	2113.958740	16.749821
385.456238	1023.984375	7334.003418	2141.265137	17.706457
385.820862	976.198425	7420.473145	2093.479248	17.337572
386.185425	955.718750	7504.667480	2148.091553	18.207087
386.549988	998.953613	7459.157227	2164.020264	18.034519
386.914490	976.198425	7770.903320	2150.367188	17.280643
387.278961	1019.433350	7636.647949	2177.673340	17.503437
387.643372	878.351013	8000.730957	2134.438477	17.635782
388.007782	998.953613	7859.648926	2088.927979	15.887229
388.372101	992.127075	7843.720215	2148.091553	16.871469
388.736450	985.300537	7775.454590	2079.825928	16.119301
389.100739	980.749451	7734.495117	2182.224365	17.789757
389.464966	1019.433350	7629.821289	2102.581299	16.385544
389.829163	1046.739624	7825.516113	1945.570313	13.259482
390.193329	1055.841675	7588.861816	2041.142212	15.081854
390.557495	1028.535400	7909.710449	2104.856689	15.641534
390.921570	1076.321289	7850.546875	2086.652588	14.914344
391.285614	1023.984375	8068.996582	2075.274902	14.922480
391.649597	1021.708862	8405.773438	2138.989502	15.130971
392.013550	989.851563	8951.898438	2273.245361	16.118893
392.377502	1012.606750	9054.296875	2209.530762	14.883986
392.741455	973.922913	9017.888672	2193.602051	15.162661
393.105316	1067.219238	9038.368164	2118.509766	13.188695
393.469086	951.167725	8904.113281	2098.030273	14.420602
393.832886	1064.943726	8578.713867	2184.500000	14.900061
394.196655	1017.157776	9006.511719	2168.571289	14.411848
394.560333	980.749451	8997.409180	2179.948975	14.958842
394.924042	1051.290649	9086.154297	2091.203613	12.942509
395.287659	1053.566162	9052.021484	2118.509766	13.314366
395.651245	1042.188477	9020.164063	2168.571289	14.118654
396.014771	951.167725	8744.826172	2168.571289	15.620439
396.378296	1060.392700	8437.630859	2061.621826	13.571869
396.741791	946.616638	8278.344727	1947.845825	13.656115
397.105255	989.851563	8082.649902	2011.560425	14.404877
397.468628	1042.188477	7998.455566	1936.468262	12.855742
397.832001	1019.433350	7966.598145	1900.059814	12.676055
398.195313	992.127075	8253.313477	2000.182739	13.882795
398.558624	1030.810913	7927.914551	1936.468262	13.130980
398.921844	1067.219238	8094.027344	1909.161987	11.981866
399.285095	1042.188477	8207.803711	1893.233276	11.876786
399.648254	1089.974487	8191.875000	1911.437500	11.566806
400.011383	976.198425	8162.292969	1854.549438	12.222925
400.374451	955.718750	8194.150391	1879.580200	12.763282
400.737549	1030.810913	8280.620117	1950.121338	12.680478
401.100586	976.198425	8121.333984	1895.508789	12.866241
401.463562	994.402588	8155.466797	1934.192627	13.123609
401.826508	896.555176	8458.110352	1972.876587	14.234128
402.189392	1005.780212	8062.170410	1938.743774	13.221541
402.552246	1026.259888	8330.681641	1936.468262	12.461060
402.915070	1010.331238	8373.916992	1977.427612	13.133497
403.277893	1010.331238	8380.743164	1913.713013	12.256869
403.640656	1014.882263	8662.907227	1920.539551	11.841715
404.003326	1062.668213	9029.266602	1963.774414	11.311053
404.366028	1046.739624	9038.368164	2066.172852	12.756264
404.728699	994.402588	9240.889648	2063.897461	12.969096
405.091248	951.167725	9561.738281	2072.999512	13.028543
405.453857	926.136963	9445.686523	1954.672363	12.072650
405.816345	967.096313	9520.779297	1988.805176	11.944667
406.178833	1019.433350	9432.034180	1975.152100	11.360562
406.541260	1005.780212	9468.442383	2093.479248	12.852918
406.903687	985.300537	9309.155273	1977.427612	11.919083
407.266052	1051.290649	9236.338867	1895.508789	10.314150
407.628387	989.851563	9049.746094	1904.610962	11.349521
407.990662	1035.361938	8981.480469	1959.223389	11.626575
408.352905	1023.984375	8999.684570	1927.366089	11.326676
408.715118	962.545288	8924.592773	1838.620850	11.003144
409.077332	994.402588	8933.694336	1895.508789	11.349957
409.439484	932.963501	8772.132813	1811.314575	11.204644
409.801575	1046.739624	9174.899414	1927.366089	10.834267
410.163605	1028.535400	9304.604492	1806.763550	9.403355
410.525635	1012.606750	9427.482422	1852.273926	9.978367
410.887604	987.576050	9520.779297	1852.273926	10.133333
411.249573	1037.637451	9743.780273	1815.865601	8.938840
411.611481	1089.974487	9507.125977	1859.100464	9.137604
411.973328	1010.331238	9559.462891	1829.518677	9.582112
412.335144	1078.596802	9650.483398	1799.937012	8.415186
412.696930	1099.076538	9300.053711	1900.059814	9.766925
413.058685	1083.147949	9231.788086	1829.518677	9.159451
413.420410	1051.290649	9363.768555	1758.977539	8.513550
413.782104	1087.698975	9427.482422	1743.048950	7.858118
414.143707	980.749451	9434.309570	1793.110352	9.609690
414.505310	1092.250000	9407.002930	1774.906250	8.210181
414.866852	1019.433350	9736.953125	1738.497925	8.248500
415.228394	1003.504700	9661.861328	1752.151001	8.646518
415.589874	1033.086426	10003.189453	1765.804199	8.168443
415.951324	937.514587	10157.924805	1765.804199	8.983219
416.312683	1080.872437	10415.058594	1797.661377	7.679180
416.674072	985.300537	10469.670898	1708.916138	7.629559
417.035370	978.473938	10924.775391	1781.732788	8.075955
417.396667	1003.504700	10961.183594	1793.110352	7.929615
417.757935	1064.943726	10970.286133	1754.426514	6.960716
418.119141	1055.841675	11334.369141	1711.191650	6.375913
418.480286	1049.015137	11703.003906	1706.640625	6.172575
418.841400	1058.117188	12522.191406	1813.590088	6.589916
419.202484	1021.708862	12820.284180	1897.784302	7.425265
419.563568	1033.086426	13027.356445	1879.580200	7.057485
419.924591	1014.882263	13803.309570	1936.468262	7.206406
420.285553	1030.810913	14037.687500	1920.539551	6.840448
420.646484	1042.188477	14913.763672	2059.346436	7.332678
421.007355	1051.290649	15462.164063	2077.550537	7.121428
421.368225	1026.259888	16101.584961	2161.744873	7.532076
421.729065	1089.974487	16479.322266	2150.367188	6.890433
422.089874	987.576050	17364.500000	2104.856689	6.822286
422.450592	983.024963	17084.609375	2170.846924	7.377051
422.811279	996.678101	16911.669922	2043.417725	6.577066
423.171936	976.198425	16624.955078	2102.581299	7.197906
423.532593	969.371887	16363.270508	2127.612061	7.524022
423.893127	939.790100	16736.455078	2118.509766	7.461826
424.253723	1010.331238	16975.384766	2141.265137	7.083808
424.614197	1003.504700	16904.843750	2145.816162	7.183744
424.974670	1001.229126	17860.562500	2129.887451	6.694561
425.335052	1037.637451	17762.714844	2166.295898	6.748300
425.695496	1055.841675	16866.160156	2125.336426	6.764536
426.055817	1076.321289	17130.121094	2164.020264	6.775337
426.416168	967.096313	16818.375000	2104.856689	7.177720
426.776398	930.687988	16001.461914	2095.754639	7.730636
427.136627	1055.841675	15282.397461	2116.234375	7.453615
427.496826	1053.566162	15086.703125	2032.040039	6.972596
427.856995	1060.392700	14579.261719	1993.356201	6.901195
428.217102	905.657288	14019.483398	2032.040039	8.589276
428.577179	985.300537	13898.880859	2032.040039	8.105726
428.937195	1055.841675	13616.716797	1968.325439	7.264492
429.297180	987.576050	13204.847656	1972.876587	8.064816
429.657135	969.371887	13293.592773	1861.375977	7.237813
430.017059	887.453125	13091.071289	1941.019287	8.633228
430.376984	1026.259888	13015.978516	1897.784302	7.268931
430.736786	1017.157776	12997.774414	1847.722900	6.932574
431.096588	1014.882263	12745.192383	1861.375977	7.216294
431.456360	989.851563	12899.927734	1890.957764	7.565915
431.816071	957.994263	12488.058594	1884.131226	8.032366
432.175781	1026.259888	12676.926758	1827.243164	6.875000
432.535400	944.341125	12747.467773	1872.753662	7.865819
432.895020	1005.780212	12640.517578	1856.824951	7.314688
433.254578	1012.606750	12833.937500	1863.651489	7.199229
433.614105	1108.178589	12959.090820	1902.335449	6.701230
433.973602	1008.055725	13345.929688	1852.273926	6.842493
434.333038	1096.801025	13480.185547	1997.907227	7.276736
434.692444	1028.535400	13648.574219	1824.967651	6.310854
435.051819	1062.668213	13755.523438	1938.743774	6.902116
435.411133	1001.229126	13762.349609	1922.815063	7.221827
435.770416	1008.055725	12706.507813	1879.580200	7.449913
436.129669	1019.433350	13646.297852	1897.784302	6.956208
436.488861	1055.841675	13582.583984	1952.396851	7.157130
436.848083	951.167725	13154.786133	1865.927002	7.495804
437.207184	985.300537	13409.644531	1941.019287	7.692307
437.566254	1051.290649	13618.992188	1815.865601	6.083650
437.925293	962.545288	13618.992188	1777.181763	6.436533
438.284363	989.851563	13593.960938	1840.896362	6.752121
438.643311	1046.739624	13871.575195	1834.069824	6.139105
439.002258	978.473938	13905.708008	1781.732788	6.213695
439.361145	1005.780212	14258.413086	1777.181763	5.820742
439.719971	1055.841675	15034.366211	1875.029175	5.860329
440.078827	998.953613	15066.223633	1813.590088	5.791007
440.437592	962.545288	15662.410156	1884.131226	6.269350
440.796295	1067.219238	15687.440430	1838.620850	5.276265
441.155029	1105.903076	16645.435547	1952.396851	5.447357
441.513672	1044.463989	17287.130859	2029.764526	6.066125
441.872253	1069.494751	16870.710938	1895.508789	5.227535
442.230865	1003.504700	16558.964844	1906.886475	5.807490
442.589386	1028.535400	16499.800781	1865.927002	5.412560
442.947876	1062.668213	16085.656250	1847.722900	5.225689
443.306335	1023.984375	15837.625000	1865.927002	5.683563
443.664764	980.749451	15243.713867	1774.906250	5.567965
444.023102	1026.259888	15676.062500	1779.457275	5.141348
444.381500	1039.912964	15284.672852	1774.906250	5.159745
444.739777	1023.984375	15735.226563	1845.447388	5.583913
445.098022	1003.504700	15892.237305	1804.488037	5.379796
445.456238	1094.525513	15849.001953	1822.692139	4.935225
445.814423	1003.504700	16201.708008	1829.518677	5.434945
446.172577	989.851563	17237.070313	1809.039063	5.042017
446.530701	935.239075	17180.181641	1872.753662	5.771117
446.888733	1035.361938	17885.593750	1984.254150	5.631330
447.246765	998.953613	18686.576172	1904.610962	5.120289
447.604736	1010.331238	18008.470703	1947.845825	5.515396
447.962677	1014.882263	18183.687500	2025.213501	5.884692
448.320587	1005.780212	18363.453125	2063.897461	6.095962
448.678436	1049.015137	18151.830078	2057.070801	5.894092
449.036255	1005.780212	17771.818359	2054.795166	6.256784
449.394043	1003.504700	16533.933594	2009.284912	6.476191
449.751770	1028.535400	17109.640625	1936.468262	5.645960
450.109467	1003.504700	16483.873047	2002.458252	6.453035
450.467163	1044.463989	16372.372070	2027.489014	6.413302
450.824768	1010.331238	16017.390625	2045.693237	6.899167
451.182343	1035.361938	16267.698242	2002.458252	6.348969
451.539886	1033.086426	15546.358398	1963.774414	6.412669
451.897369	1035.361938	15771.634766	2077.550537	7.072268
452.254822	942.065613	15396.173828	2113.958740	8.107681
452.612274	985.300537	16006.013672	2143.540527	7.710952
452.969635	1035.361938	15689.715820	2095.754639	7.236025
453.326965	980.749451	15764.808594	2107.132324	7.618901
453.684326	1019.433350	15425.755859	2225.459229	8.371504
454.041534	967.096313	15271.020508	2179.948975	8.479160
454.398773	983.024963	15034.366211	2168.571289	8.437247
454.755951	1021.708862	14340.332031	2168.571289	8.610969
455.113098	1042.188477	14087.749023	2257.316650	9.314496
455.470215	1019.433350	14294.821289	2439.358398	10.695922
455.827240	1046.739624	14085.473633	2307.378174	9.668412
456.184265	980.749451	13801.033203	2382.470215	10.933617
456.541260	1046.739624	14060.443359	2402.949951	10.421401
456.898193	1039.912964	14140.085938	2621.399902	12.072260
457.255096	987.576050	14360.811523	2616.848877	12.183086
457.611969	1014.882263	14078.647461	2673.737061	12.698136
457.968781	1005.780212	13919.360352	2703.318604	13.145373
458.325531	1078.596802	14208.351563	2885.360352	13.760832
458.682312	1080.872437	15170.897461	3074.228516	14.147285
459.039001	1039.912964	15614.624023	3153.871826	14.504294
459.395630	1014.882263	16395.126953	3367.770752	15.298120
459.752289	1064.943726	17840.083984	3554.363525	14.839934
460.108856	998.953613	18936.884766	3802.395264	15.628567
460.465363	1023.984375	19926.736328	4041.324951	15.962440
460.821899	980.749451	19778.826172	3986.712402	15.990801
461.178345	1035.361938	19248.630859	3998.090088	16.266865
461.534760	1003.504700	19164.435547	4093.661865	17.015411
461.891144	1017.157776	17958.410156	3927.548828	17.179316
462.247467	1030.810913	17052.751953	4082.284424	19.045591
462.603760	1074.045776	16872.986328	4011.743164	18.594267
462.960052	1021.708862	16085.656250	4143.723145	20.725073
463.316254	1008.055725	15343.836914	3932.099854	20.396824
463.672424	1012.606750	15186.826172	4014.018799	21.175148
464.028564	996.678101	14640.701172	3911.620361	21.364243
464.384644	923.861450	14861.426758	3927.548828	21.551020
464.740723	987.576050	15020.712891	4139.172363	22.458244
465.096741	996.678101	14931.967773	4095.937500	22.240364
465.452698	1005.780212	14850.048828	4250.672852	23.438526
465.808655	1014.882263	15086.703125	4280.254395	23.205042
466.164520	932.963501	14636.149414	4277.979004	24.410496
466.520355	1044.463989	15742.052734	4494.153809	23.471128
466.876190	1014.882263	15742.052734	4396.306152	22.960443
467.231964	969.371887	15614.624023	4521.459961	24.254196
467.587677	1105.903076	16049.248047	4771.767090	24.531750
467.943390	976.198425	16326.861328	5033.452148	26.430479
468.299011	1001.229126	15671.511719	4787.695801	25.810457
468.654633	1046.739624	15391.623047	4714.878906	25.571062
469.010223	1051.290649	15471.265625	4899.196289	26.684553
469.365723	1012.606750	15095.804688	4860.512207	27.322668
469.721191	1019.433350	15318.805664	4758.113770	26.145767
470.076660	980.749451	14638.425781	4669.368652	27.007662
470.432068	987.576050	14952.447266	4767.216309	27.065342
470.787445	973.922913	14738.547852	4949.257813	28.880808
471.142792	973.922913	14952.447266	4944.706543	28.406315
471.498016	1008.055725	15013.886719	5035.727539	28.757107
471.853271	1003.504700	15129.937500	5040.278809	28.576035
472.208496	1060.392700	14802.262695	5122.197266	29.557875
472.563660	998.953613	15143.590820	5151.779297	29.359720
472.918762	1117.280762	15389.347656	5258.728516	29.017857
473.273865	1042.188477	15598.695313	5313.341309	29.341881
473.628876	1060.392700	15946.849609	5518.138184	29.944973
473.983917	1012.606750	16167.575195	5515.862305	29.714712
474.338837	1083.147949	16049.248047	5700.179688	30.849934
474.693787	987.576050	16224.462891	5770.720703	31.391876
475.048645	1101.352051	15926.370117	5738.863281	31.281658
475.403503	1069.494751	16169.850586	5759.343262	31.057869
475.758270	980.749451	16495.250000	5923.180664	31.856850
476.113037	1110.454102	16547.587891	5757.067871	30.100237
476.467773	976.198425	16408.781250	5886.772461	31.819523
476.822418	1058.117188	17676.246094	6453.376953	32.466110
477.177063	1062.668213	17132.396484	6396.488770	33.191727
477.531647	980.749451	17414.560547	6439.723633	33.217945
477.886200	1008.055725	18201.890625	6678.653320	32.980415
478.240723	1005.780212	18295.187500	6899.378906	34.087914
478.595184	985.300537	19080.242188	6708.235352	31.627262
478.949585	1037.637451	18961.914063	6899.378906	32.702805
479.303986	1051.290649	19321.447266	7019.981445	32.669075
479.658325	1042.188477	19337.375000	7236.156250	33.855721
480.012634	1035.361938	19423.845703	6976.746582	32.310356
480.366913	996.678101	20224.828125	7579.759766	34.236687
480.721130	1046.739624	20661.728516	7627.545898	33.549885
481.075317	1069.494751	21223.783203	7832.342773	33.555378
481.429474	1115.005249	22045.246094	8505.896484	35.312023
481.783569	989.851563	23123.841797	8587.815430	34.327129
482.137604	1071.770264	24163.755859	8942.796875	34.085533
482.491669	1030.810913	26459.755859	9812.045898	34.532440
482.845612	1030.810913	29160.798828	10929.326172	35.188480
483.199554	1074.045776	33149.785156	12126.250000	34.456585
483.553436	998.953613	38524.566406	14115.055664	34.952396
483.907318	1003.504700	45344.304688	17068.681641	36.231136
484.261139	983.024963	51326.648438	19731.041016	37.240097
484.614899	1026.259888	54510.101563	20659.453125	36.708645
484.968628	973.922913	54027.691406	20880.179688	37.520908
485.322357	1039.912964	50866.992188	19555.826172	37.160343
485.675964	971.647400	47758.628906	18138.175781	36.690826
486.029572	1023.984375	43282.679688	16891.191406	37.547791
486.383148	1010.331238	40351.808594	15503.123047	36.838455
486.736694	1049.015137	38822.660156	14638.425781	35.975903
487.090149	1012.606750	38583.730469	14977.477539	37.169159
487.443604	1028.535400	39628.195313	15027.539063	36.267170
487.796997	1035.361938	41382.621094	15780.736328	36.546162
488.150360	1023.984375	42925.425781	16411.056641	36.722061
488.503693	1030.810913	43594.425781	16895.742188	37.273460
488.856964	1023.984375	42408.882813	16415.607422	37.191399
489.210175	983.024963	40272.167969	15569.113281	37.124981
489.563416	983.024963	38008.023438	14788.609375	37.287193
489.916565	1037.637451	35844.003906	13791.931641	36.643566
490.269653	1062.668213	33297.695313	13348.205078	38.112385
490.622772	1001.229126	32132.628906	12915.856445	38.272057
490.975769	1060.392700	32842.589844	12899.927734	37.252098
491.328735	1010.331238	33934.839844	13512.042969	37.970840
491.681732	978.473938	36201.261719	14315.301758	37.864201
492.034607	1003.504700	37976.167969	15154.968750	38.275478
492.387482	973.922913	39063.867188	15364.316406	37.780033
492.740326	1001.229126	37571.125000	14970.651367	38.199242
493.093079	985.300537	36239.945313	14240.208984	37.597622
493.445862	1028.535400	32954.093750	13013.703125	37.540981
493.798523	932.963501	30325.865234	12465.302734	39.235115
494.151215	1039.912964	28327.958984	11352.573242	37.791859
494.503815	964.820801	26236.753906	10556.140625	37.952457
494.856384	1023.984375	24600.656250	10264.874023	39.195057
495.208923	1067.219238	23574.394531	9748.331055	38.570415
495.561432	930.687988	22859.882813	9356.941406	38.424820
495.913879	1051.290649	22625.503906	9327.359375	38.360928
496.266296	1021.708862	22684.666016	9370.594727	38.539917
496.618683	1023.984375	22680.115234	9477.543945	39.035412
496.970978	980.749451	23408.283203	9768.810547	39.184254
497.323273	992.127075	24020.398438	9725.576172	37.924900
497.675507	994.402588	24147.826172	9775.637695	37.926292
498.027710	983.024963	23888.417969	9782.463867	38.416451
498.379852	1046.739624	23572.119141	9834.800781	39.014046
498.731995	985.300537	23344.568359	9707.372070	39.008751
499.084076	948.892151	22862.158203	9693.718750	39.906540
499.436096	971.647400	22666.462891	9277.297852	38.284031
499.788086	1008.055725	22391.125000	9329.635742	38.916679
500.140106	1051.290649	21822.244141	9179.451172	39.132343
500.491943	1023.984375	20848.322266	8908.664063	39.772728
500.843842	1021.708862	21160.068359	8760.754883	38.429375
501.195679	944.341125	20466.033203	8844.949219	40.470921
501.547455	976.198425	20277.166016	8567.335938	39.330349
501.899231	1051.290649	20197.523438	8512.723633	38.970764
502.250885	1028.535400	19947.214844	8273.793945	38.296852
502.602600	1051.290649	19785.654297	8503.621094	39.778938
502.954193	1033.086426	19669.601563	8228.283203	38.608059
503.305786	1014.882263	19894.878906	8264.691406	38.399422
503.657379	1042.188477	19983.623047	8260.140625	38.106682
504.008820	1037.637451	19753.796875	8182.772949	38.176292
504.360291	1087.698975	20277.166016	8494.519531	38.598366
504.711700	1049.015137	20147.460938	8530.927734	39.175507
505.063080	1071.770264	20190.695313	8476.315430	38.728874
505.414368	1055.841675	20272.615234	8428.529297	38.365898
505.765656	1089.974487	20070.093750	8535.478516	39.227909
506.116943	989.851563	20126.982422	8535.478516	39.429249
506.468109	1060.392700	20024.583984	8357.988281	38.480923
506.819305	1023.984375	19694.632813	8357.988281	39.280930
507.170410	1030.810913	19929.011719	8624.223633	40.180611
507.521484	964.820801	19719.664063	8155.466797	38.340206
507.872559	1033.086426	19860.746094	8626.499023	40.331154
508.223480	978.473938	19835.714844	8499.070313	39.881744
508.574493	1085.423462	20527.472656	8546.856445	38.377811
508.925385	1083.147949	20538.851563	8776.683594	39.543858
509.276245	1053.566162	20773.228516	8958.725586	40.087700
509.627045	1033.086426	21519.599609	9118.011719	39.464622
509.977814	1028.535400	21519.599609	8974.654297	38.778461
510.328613	1092.250000	21722.121094	9063.399414	38.638870
510.679260	1008.055725	21576.488281	9106.633789	39.373825
511.029999	1008.055725	21788.111328	9213.583984	39.487522
511.380585	1014.882263	22104.408203	9184.001953	38.735435
511.731140	1019.433350	22202.255859	9486.646484	39.972073
512.081726	1017.157776	22482.146484	9529.880859	39.658642
512.432129	1085.423462	22673.289063	9420.656250	38.610729
512.782654	996.678101	22486.697266	9714.198242	40.565437
513.133057	951.167725	23032.822266	9609.524414	39.210632
513.483398	1060.392700	22814.371094	9500.299805	38.797073
513.833801	1008.055725	22716.523438	9527.605469	39.245285
514.183960	1028.535400	22448.013672	9463.890625	39.381702
514.534302	998.953613	22070.275391	9372.870117	39.740818
514.884460	1012.606750	22083.929688	9370.594727	39.665230
515.234619	992.127075	22045.246094	9256.818359	39.256374
515.584717	1014.882263	21797.212891	9177.175781	39.275162
515.934753	1128.658325	21990.632813	9402.452148	39.659687
516.284851	1008.055725	22450.289063	9525.330078	39.721958
516.634766	1055.841675	22218.185547	9427.482422	39.559135
516.984741	957.994263	22566.339844	9579.942383	39.901009
517.334595	1062.668213	23658.589844	9798.392578	38.660625
517.684448	1008.055725	24029.500000	10428.711914	40.921223
518.034363	998.953613	24994.320313	10410.507813	39.222382
518.384094	962.545288	26125.253906	11036.276367	40.034367
518.733826	978.473938	27258.462891	11470.900391	39.925537
519.083496	1005.780212	27786.384766	11718.931641	40.003395
519.433167	983.024963	28391.673828	11766.717773	39.344124
519.782776	980.749451	28018.488281	11803.125977	40.026932
520.132324	1055.841675	27406.373047	11464.074219	39.499138
520.481873	996.678101	27067.320313	11245.624023	39.312214
520.831299	973.922913	26332.326172	10963.458984	39.393398
521.180786	928.412476	25538.169922	10683.570313	39.639393
521.530151	1033.086426	25333.373047	10531.110352	39.086056
521.879517	1019.433350	24898.748047	10251.221680	38.660191
522.228882	978.473938	24682.574219	10462.844727	40.011520
522.578064	978.473938	24318.490234	10335.415039	40.089695
522.927307	1044.463989	24666.644531	10123.791992	38.435608
523.276489	976.198425	24539.216797	10255.772461	39.381943
523.625610	978.473938	24946.535156	10517.457031	39.798729
523.974792	1064.943726	25497.210938	10763.213867	39.694515
524.323792	1001.229126	25706.558594	10826.927734	39.771572
524.672852	994.402588	26275.439453	10904.295898	39.198921
525.021790	978.473938	27524.699219	11065.857422	37.999317
525.370728	1035.361938	28537.306641	11964.688477	39.740192
525.719604	985.300537	29777.464844	12399.312500	39.642773
526.068420	1108.178589	31479.554688	13107.000000	39.507004
526.417297	992.127075	32901.753906	13477.910156	39.128578
526.765991	944.341125	33887.054688	14053.616211	39.794155
527.114746	1060.392700	35222.785156	14481.414063	39.285954
527.463379	1055.841675	36053.351563	14984.304688	39.798439
527.812012	1001.229126	38438.097656	15603.246094	39.004375
528.160706	1053.566162	41387.171875	17330.367188	40.355431
528.509155	985.300537	46315.949219	19027.904297	39.802219
528.857727	1039.912964	50969.390625	21073.597656	40.123966
529.206177	1005.780212	54070.925781	22975.933594	41.402233
529.554565	1012.606750	54073.199219	23144.322266	41.710266
529.902893	998.953613	52443.929688	21922.367188	40.671444
530.251221	1017.157776	50188.886719	20664.003906	39.955570
530.599548	1017.157776	45942.765625	19039.283203	40.115482
530.947876	1062.668213	42509.003906	17318.988281	39.222576
531.296021	1076.321289	39357.406250	16431.535156	40.111752
531.644165	1035.361938	36788.343750	14954.722656	38.932030
531.992249	1042.188477	35086.253906	14228.832031	38.734043
532.340454	1083.147949	34189.699219	13901.156250	38.717438
532.688354	1017.157776	34521.925781	14185.596680	39.303177
533.036438	1014.882263	35602.796875	14704.415039	39.578949
533.384338	1039.912964	37878.320313	15428.031250	39.057384
533.732239	1037.637451	39521.246094	16010.564453	38.907284
534.080139	1039.912964	39537.175781	16356.443359	39.786026
534.427917	978.473938	39336.929688	16033.319336	39.247787
534.775757	976.198425	37361.777344	15257.367188	39.249531
535.123474	998.953613	35639.207031	14556.506836	39.138145
535.471191	955.718750	33807.414063	13803.309570	39.107849
535.818848	1003.504700	32505.814453	13357.306641	39.215542
536.166382	1055.841675	31814.056641	13063.764648	39.039726
536.513977	1017.157776	31666.148438	12945.437500	38.918995
536.861511	1001.229126	31868.667969	13238.980469	39.646149
537.208984	1030.810913	32446.650391	13350.480469	39.214836
537.556396	1126.382813	31916.455078	13113.826172	38.932819
537.903809	1023.984375	31263.380859	13182.091797	40.206184
538.251160	1012.606750	30733.183594	12599.558594	38.986298
538.598389	1046.739624	29076.605469	12280.985352	40.079559
538.945740	973.922913	28252.867188	11903.249023	40.065063
539.292969	1023.984375	27486.015625	11846.361328	40.897755
539.640137	1026.259888	27957.048828	11498.207031	38.884666
539.987244	980.749451	27761.353516	11860.014648	40.623676
540.334351	932.963501	28810.369141	12205.893555	40.437511
540.681458	1021.708862	30639.886719	12738.365234	39.559006
541.028442	1039.912964	33350.031250	14517.822266	41.714203
541.375366	1055.841675	36401.507813	15662.410156	41.324917
541.722290	1039.912964	39264.113281	17209.763672	42.302654
542.069153	1055.841675	41400.824219	17623.908203	41.065987
542.416016	996.678101	40779.609375	17651.214844	41.863525
542.762756	1019.433350	40019.585938	17118.742188	41.280117
543.109558	1019.433350	38931.886719	16811.546875	41.654160
543.456299	1026.259888	36640.437500	15808.042969	41.505337
543.802917	1119.556274	35011.164063	14966.100586	40.855373
544.149536	985.300537	33793.757813	14465.485352	41.087528
544.496094	1023.984375	31297.513672	13609.889648	41.573959
544.842651	1071.770264	30237.121094	13011.427734	40.937813
545.189148	987.576050	28630.603516	12847.590820	42.904182
545.535583	1096.801025	27784.109375	12319.669922	42.053207
545.882019	1035.361938	26901.207031	12435.720703	44.074951
546.228333	1071.770264	26491.613281	12585.905273	45.295853
546.574707	1014.882263	26751.023438	12467.578125	44.500443
546.920898	942.065613	26657.726563	12321.945313	44.252724
547.267212	1023.984375	26755.574219	12205.893555	43.455959
547.613342	1049.015137	26541.673828	12258.230469	43.970364
547.959473	1035.361938	26193.519531	11605.156250	42.013386
548.305664	1008.055725	25442.597656	11277.481445	42.028316
548.651611	1035.361938	24455.021484	11047.653320	42.751648
548.997742	1028.535400	23385.527344	10362.721680	41.750637
549.343689	1064.943726	22402.501953	9873.484375	41.281860
549.689575	1049.015137	21763.080078	9600.421875	41.283092
550.035522	1049.015137	20896.107422	9095.256836	40.541161
550.381287	1001.229126	20322.675781	8701.591797	39.853966
550.727173	1026.259888	19974.521484	8467.212891	39.269844
551.072876	1062.668213	19280.488281	8189.599121	39.120655
551.418640	1021.708862	19439.773438	8360.263672	39.844330
551.764282	932.963501	19207.671875	7957.496094	38.438549
552.109863	973.922913	19280.488281	8084.925293	38.844002
552.455505	969.371887	19421.570313	8107.680664	38.685410
552.801025	1083.147949	20122.429688	8094.027344	36.823235
553.146545	1026.259888	20270.339844	8260.140625	37.590160
553.491943	948.892151	20111.052734	8405.773438	38.914619
553.837341	935.239075	20309.023438	8380.743164	38.430817
554.182800	957.994263	19999.552734	8200.976563	38.037762
554.528015	983.024963	19578.580078	8203.252930	38.827709
554.873352	1089.974487	19385.162109	7966.598145	37.587063
555.218628	1076.321289	19194.017578	7695.811523	36.536049
555.563721	1060.392700	18736.638672	7597.963867	36.985065
555.908875	1089.974487	18420.341797	7340.830078	36.068798
556.254028	1033.086426	17931.103516	7295.319824	37.058983
556.599121	1017.157776	17849.185547	7361.309570	37.690956
556.944031	985.300537	17860.562500	7256.635742	37.162891
557.289063	1033.086426	17730.857422	7161.063965	36.699375
557.633972	964.820801	17719.480469	7106.451660	36.656254
557.978882	1069.494751	17601.154297	6883.450195	35.168613
558.323792	973.922913	17553.367188	7056.390137	36.686802
558.668518	1012.606750	17373.601563	6922.134277	36.119610
559.013306	987.576050	17098.263672	6781.051758	35.960449
559.358032	1010.331238	17109.640625	6840.215332	36.212013
559.702637	969.371887	17095.988281	6783.327637	36.051926
560.047363	1019.433350	17102.814453	6746.918945	35.611202
560.391846	917.034912	17191.560547	6676.377930	35.388699
560.736450	1030.810913	17118.742188	6883.450195	36.379066
561.080933	1021.708862	16977.660156	6730.990723	35.781521
561.425354	1021.708862	17328.091797	6767.398926	35.235832
561.769775	1049.015137	17312.162109	6774.225586	35.203583
562.114136	989.851563	17692.173828	6856.144043	35.122616
562.458496	1030.810913	17416.835938	6922.134277	35.953339
562.802673	1026.259888	17412.285156	6935.787598	36.064438
563.146912	1108.178589	17093.712891	6671.827148	34.804268
563.491150	1053.566162	17059.580078	6687.755859	35.200455
563.835266	1101.352051	16948.078125	6471.581055	33.888569
564.179443	1058.117188	17239.345703	6740.092773	35.114613
564.523438	1103.627563	17091.437500	6601.285645	34.386562
564.867493	980.749451	17114.191406	6628.592285	35.007053
565.211426	1042.188477	17678.521484	6790.154297	34.550678
565.555359	983.024963	17692.173828	6812.909180	34.890373
565.899231	976.198425	18320.218750	6783.327637	33.482029
566.243042	983.024963	18700.230469	7026.808105	34.112511
566.586914	1060.392700	18768.496094	7211.125488	34.734001
566.930603	1023.984375	19339.650391	7427.299805	34.960865
567.274292	969.371887	19325.998047	7445.503906	35.279530
567.617981	998.953613	18879.996094	7274.839844	35.097988
567.961609	1014.882263	19139.406250	7117.829102	33.672318
568.305237	1012.606750	18536.392578	7067.767578	34.553955
568.648682	1044.463989	18340.697266	6942.613770	34.100777
568.992188	1064.943726	17919.726563	6801.531738	34.035370
569.335632	978.473938	17937.929688	6705.959961	33.771637
569.679016	971.647400	17994.818359	6815.184570	34.326958
570.022461	1058.117188	17733.132813	6776.500977	34.293125
570.365662	978.473938	17981.166016	6769.674316	34.060490
570.708984	987.576050	17746.787109	6512.540527	32.966732
571.052185	971.647400	18099.492188	6758.296875	33.785038
571.395386	1019.433350	18449.921875	6680.929199	32.480423
571.738525	1021.708862	18738.914063	6933.511719	33.367580
572.081604	1044.463989	19025.628906	6972.195801	32.966343
572.424683	957.994263	19378.335938	7211.125488	33.946880
572.767578	1046.739624	19817.509766	6985.848633	31.640200
573.110596	1046.739624	19407.916016	7101.900391	32.978065
573.453552	1053.566162	19733.316406	7195.196777	32.878548
573.796387	1019.433350	19287.314453	6976.746582	32.610863
574.139282	1051.290649	18823.107422	6994.951172	33.444305
574.481995	1101.352051	18606.933594	6947.165039	33.393993
574.824768	1003.504700	18488.607422	6692.306641	32.535133
575.167480	1028.535400	18643.341797	6660.449219	31.972614
575.510132	998.953613	18522.740234	6799.256348	33.099594
575.852722	1008.055725	18372.554688	6599.010254	32.197617
576.195251	1023.984375	18468.126953	6587.632813	31.894077
576.537842	1060.392700	18079.013672	6796.980469	33.707714
576.880188	960.269775	17767.265625	6517.091797	33.062553
577.222717	1017.157776	17673.970703	6178.039063	30.983606
577.565063	1035.361938	17168.804688	6198.518555	32.002823
577.907410	996.678101	16872.986328	6153.008301	32.478142
578.249756	951.167725	16279.076172	6000.548340	32.942402
578.591919	980.749451	16035.594727	5757.067871	31.726120
578.934204	994.402588	15771.634766	5820.782227	32.660919
579.276306	1001.229126	15484.918945	5841.261719	33.417126
579.618469	998.953613	15143.590820	5584.127930	32.416344
579.960571	1026.259888	15214.131836	5497.658203	31.515638
580.302551	971.647400	14713.517578	5552.270996	33.333336
580.644531	942.065613	14836.395508	5356.576172	31.772030
580.986511	1030.810913	14563.333008	5265.555176	31.293087
581.328369	1060.392700	14451.833008	5443.045898	32.727272
581.670227	1023.984375	14410.873047	5129.023926	30.664627
582.012024	1017.157776	14306.199219	5238.249023	31.763700
582.353821	1008.055725	14240.208984	5292.861328	32.381771
582.695496	951.167725	14176.494141	5140.401367	31.675842
583.037231	962.545288	14121.881836	5199.564941	32.197819
583.378845	1030.810913	14183.321289	5140.401367	31.245672
583.720398	1005.780212	13846.543945	5135.850586	32.163742
584.062012	994.402588	13942.116211	5129.023926	31.933214
584.403442	985.300537	13917.084961	5008.421387	31.110331
584.744934	1008.055725	13853.371094	4906.022949	30.345438
585.086365	1058.117188	13757.798828	4937.880371	30.550083
585.427734	1012.606750	13748.696289	5044.829590	31.659819
585.768982	1094.525513	13810.135742	4883.267578	29.795992
586.110291	1023.984375	13591.685547	4958.359863	31.305450
586.451599	1021.708862	13703.186523	4985.666016	31.257849
586.792725	1060.392700	13728.216797	4987.941406	31.004131
587.133850	1023.984375	13766.900391	4758.113770	29.303570
587.474915	1037.637451	13628.093750	4892.369629	30.616302
587.815979	992.127075	13646.297852	4735.358887	29.581013
588.157043	937.514587	13705.461914	4876.440918	30.850113
588.497925	978.473938	13894.330078	4921.951660	30.532066
588.838867	1067.219238	13568.930664	4885.542969	30.542410
589.179749	989.851563	13976.249023	4801.349121	29.349922
589.520569	1042.188477	13732.767578	4830.930664	29.854761
589.861450	1021.708862	14237.933594	4819.553223	28.736227
590.202087	957.994263	14044.514648	4776.318359	29.177536
590.542847	955.718750	14504.169922	4828.655273	28.585825
590.883484	1021.708862	14133.259766	4755.838379	28.479692
591.224121	1099.076538	14397.219727	4635.235840	26.591375
591.564636	1021.708862	14085.473633	4626.133789	27.591011
591.905151	1035.361938	14039.962891	4673.919922	27.979008
592.245667	1019.433350	13867.023438	4662.541992	28.356359
592.585999	1033.086426	13928.462891	4685.297363	28.321863
592.926453	1080.872437	13746.420898	4562.419434	27.488321
593.266724	1044.463989	13719.115234	4475.949219	27.073606
593.607056	955.718750	13707.737305	4635.235840	28.854389
593.947388	980.749451	13898.880859	4541.939453	27.567375
594.287476	1003.504700	14074.095703	4503.255859	26.775768
594.627686	1067.219238	14406.322266	4678.470703	27.072670
594.967773	1064.943726	14235.658203	4619.307129	26.986866
595.307861	1030.810913	14349.434570	4617.031738	26.926361
595.647888	1030.810913	14388.118164	4749.011719	27.836452
595.987854	962.545288	14731.721680	4714.878906	27.251692
596.327820	1033.086426	14972.926758	4632.960449	25.824358
596.667725	1069.494751	15480.368164	4764.940430	25.643456
597.007568	1096.801025	15842.175781	5010.696777	26.543209
597.347351	1037.637451	15912.716797	4769.491699	25.087963
597.687073	960.269775	16834.302734	5090.339844	26.017775
598.026794	1119.556274	16295.004883	5017.523438	25.686010
598.366455	1019.433350	15691.991211	4960.635254	26.861042
598.706116	998.953613	15669.236328	4787.695801	25.825964
599.045654	1121.831787	14975.202148	4614.756348	25.213537
599.385193	1028.535400	14322.127930	4446.367676	25.710373
599.724731	1083.147949	14010.381836	4378.102051	25.488468
600.064087	960.269775	13609.889648	4314.387207	26.515558
600.403564	1080.872437	13289.041016	4157.376465	25.200371
600.742920	1017.157776	13282.214844	4052.702637	24.749538
601.082153	1019.433350	13243.531250	3982.161377	24.236784
601.421387	1089.974487	13184.367188	4118.692871	25.042336
601.760620	973.922913	12961.366211	3866.109863	24.126804
602.099854	1051.290649	13034.183594	4032.222900	24.876566
602.438843	1008.055725	13145.683594	3988.988037	24.559431
602.778015	1130.933838	13473.358398	4000.365479	23.248524
603.117065	994.402588	13805.584961	4068.631104	23.996447
603.456055	1064.943726	14126.433594	4239.295410	24.303135
603.794983	1033.086426	14367.638672	4227.917480	23.959042
604.133850	1055.841675	15048.019531	4441.816406	24.199053
604.472778	1094.525513	15348.387695	4514.633301	23.994253
604.811584	1099.076538	15901.339844	4689.848145	24.258259
605.150330	1017.157776	16470.218750	4735.358887	24.061260
605.489075	994.402588	16515.730469	4812.726563	24.600498
605.827698	998.953613	16563.515625	4746.736328	24.078947
606.166382	1010.331238	16112.962891	4512.357910	23.188189
606.504883	1035.361938	15646.481445	4232.468750	21.881329
606.843445	967.096313	15063.947266	4366.724609	24.116226
607.181946	978.473938	14679.384766	4207.437988	23.567514
607.520386	980.749451	14192.422852	4043.600586	23.182915
607.858826	996.678101	13828.339844	3963.957275	23.124668
608.197083	967.096313	13905.708008	3857.007813	22.335562
608.535461	1021.708862	13275.388672	3759.160400	22.339834
608.873718	1033.086426	13669.053711	3918.446777	22.834503
609.211914	973.922913	14046.790039	3884.313965	22.262836
609.550171	983.024963	14451.833008	4105.039551	23.179592
609.888245	992.127075	14631.598633	4095.937500	22.756090
610.226318	987.576050	14956.998047	4125.519043	22.462940
610.564392	1021.708862	14897.834961	4200.611328	22.909149
610.902344	1021.708862	14622.497070	4139.172363	22.921196
611.240295	1049.015137	14636.149414	4102.764160	22.475298
611.578247	1064.943726	14258.413086	3948.028564	21.852364
611.916138	1042.188477	13910.258789	4048.151611	23.359859
612.253845	1051.290649	13443.777344	3952.579590	23.411678
612.591675	1058.117188	13416.470703	3886.589600	22.887131
612.929382	957.994263	12934.060547	3900.242676	24.567738
613.267090	1046.739624	12488.058594	3709.098877	23.269688
613.604736	1028.535400	12372.006836	3656.761963	23.169508
613.942261	1017.157776	12112.597656	3497.475586	22.354391
614.279785	1039.912964	11860.014648	3465.618164	22.418505
614.617310	1005.780212	12042.055664	3574.843262	23.278351
614.954712	953.443237	11885.044922	3481.546875	23.126560
615.292175	1026.259888	11737.136719	3472.444824	22.838327
615.629517	948.892151	11630.186523	3313.158203	22.134642
615.966797	1001.229126	11527.788086	3217.586426	21.054911
616.304138	1028.535400	11693.901367	3365.495361	21.911671
616.641296	987.576050	11602.880859	3349.566650	22.250805
616.978516	996.678101	11516.411133	3306.331787	21.955441
617.315552	1005.780212	11798.575195	3322.260254	21.463207
617.652771	1062.668213	11573.298828	3413.281250	22.364147
617.989685	921.585938	11616.534180	3297.229736	22.212767
618.326721	1021.708862	11552.819336	3238.066162	21.045809
618.663696	987.576050	11834.983398	3383.699463	22.089367
619.000549	1060.392700	11637.013672	3294.954102	21.127367
619.337463	1012.606750	11807.677734	3308.607178	21.268970
619.674194	946.616638	11466.349609	3313.158203	22.496212
620.010986	1001.229126	11600.605469	3397.352539	22.606270
620.347778	957.994263	11459.522461	3253.994629	21.863489
620.684387	1071.770264	11509.583984	3253.994629	20.906912
621.020996	1096.801025	11350.297852	3265.372314	21.149578
621.357605	1037.637451	11329.818359	3242.617188	21.423834
621.694214	1062.668213	11236.521484	3228.964111	21.292776
622.030579	1074.045776	10881.540039	3244.892578	22.134571
622.367065	998.953613	11088.613281	3242.617188	22.237257
622.703430	912.483826	11081.786133	3183.453613	22.331617
623.039795	1064.943726	11034.000000	3160.698486	21.022600
623.376160	1035.361938	10913.397461	3140.218750	21.308458
623.712402	1042.188477	11024.898438	3071.953125	20.332802
624.048645	1003.504700	11022.623047	3192.555664	21.848740
624.384766	939.790100	10933.877930	3094.708252	21.561930
624.720886	1014.882263	11220.592773	3158.422852	21.003344
625.057007	1046.739624	11140.950195	3103.810303	20.378717
625.392944	983.024963	11095.439453	3153.871826	21.467148
625.729004	1039.912964	11034.000000	3206.208740	21.675776
626.064941	1033.086426	11325.266602	3188.004639	20.937433
626.400818	1037.637451	11498.207031	3210.759766	20.774418
626.736633	994.402588	11855.462891	3335.913574	21.558769
627.072449	1005.780212	11951.035156	3385.974854	21.746361
627.408264	1026.259888	12112.597656	3411.005615	21.510670
627.743896	987.576050	12048.882813	3247.168213	20.427896
628.079590	973.922913	12069.362305	3333.637939	21.267433
628.415161	957.994263	12035.229492	3365.495361	21.733770
628.750793	1012.606750	11803.125977	3374.597412	21.889500
629.086365	1049.015137	11607.431641	3162.973877	20.021551
629.421753	1055.841675	11475.451172	3281.301025	21.358377
629.757263	973.922913	11261.552734	3206.208740	21.698738
630.092651	1053.566162	10892.917969	3244.892578	22.271046
630.427917	1017.157776	10949.805664	3115.187988	21.122568
630.763184	1051.290649	10649.437500	3094.708252	21.289711
631.098511	1083.147949	10704.049805	3051.473389	20.458845
631.433716	1042.188477	10478.773438	3010.513916	20.858450
631.768799	978.473938	10617.580078	3037.820313	21.364494
632.103943	955.718750	10476.498047	2994.585449	21.414913
632.438965	1030.810913	10244.394531	2965.003662	20.992838
632.773987	1053.566162	10330.864258	2983.207764	20.799608
633.109070	1044.463989	10333.139648	3021.891602	21.288586
633.443848	969.371887	10146.546875	2980.932129	21.919167
633.778870	1058.117188	10203.435547	2939.972900	20.577257
634.113708	1058.117188	10194.333008	2994.585449	21.195518
634.448425	1039.912964	10264.874023	2889.911377	20.054268
634.783264	1001.229126	10155.649414	2930.870850	21.078798
635.117859	1021.708862	10110.138672	2958.177002	21.306961
635.452576	994.402588	10096.485352	3040.095703	22.475000
635.787170	962.545288	10130.618164	2873.982666	20.848845
636.121704	985.300537	9994.086914	2869.431641	20.914373
636.456177	1014.882263	9859.832031	2921.768799	21.559042
636.790588	1042.188477	9843.903320	2839.849854	20.423990
637.125122	1014.882263	9577.666992	2876.258301	21.737974
637.459412	1028.535400	9525.330078	2864.880615	21.612211
637.793762	985.300537	9320.533203	2764.757813	21.348621
638.128052	1008.055725	9450.238281	2780.686523	20.997305
638.462280	1071.770264	9445.686523	2751.104736	20.054350
638.796509	1064.943726	9313.707031	2762.482178	20.579308
639.130615	996.678101	9161.247070	2737.451416	21.321068
639.464722	1012.606750	9138.491211	2753.380127	21.422573
639.798767	1046.739624	9152.144531	2685.114502	20.213364
640.132751	1030.810913	8701.591797	2694.216553	21.684959
640.466736	1037.637451	8819.918945	2603.195801	20.116959
640.800598	953.443237	8667.458984	2637.328613	21.828909
641.134521	978.473938	8669.734375	2571.338623	20.710062
641.468262	1008.055725	8635.601563	2594.093750	20.793556
641.802063	1035.361938	8717.520508	2564.511963	19.905212
642.135803	1012.606750	8615.122070	2650.981689	21.550434
642.469421	1042.188477	8519.549805	2646.430664	21.454657
642.803101	1019.433350	8471.763672	2623.675537	21.526720
643.136658	971.647400	8444.458008	2580.440674	21.528624
643.470215	1035.361938	8376.192383	2566.787354	20.861746
643.803711	1026.259888	8540.029297	2591.818115	20.835855
644.137085	1046.739624	8387.569336	2462.113525	19.280844
644.470581	1058.117188	8403.498047	2503.072998	19.671625
644.803833	980.749451	8398.947266	2523.552490	20.797544
645.137207	957.994263	8237.385742	2473.491211	20.819006
645.470459	1005.780212	8335.232422	2534.930176	20.863087
645.803589	983.024963	8173.670898	2516.726074	21.329115
646.136780	928.412476	8376.192383	2614.573486	22.639780
646.469849	971.647400	8373.916992	2532.654541	21.088223
646.802979	998.953613	8376.192383	2630.501953	22.115976
647.135986	980.749451	8553.682617	2505.348389	20.132212
647.468994	1083.147949	8446.733398	2569.062988	20.179234
647.801941	1037.637451	8362.539063	2584.991699	21.124575
648.134766	1023.984375	8357.988281	2528.103516	20.508841
648.467651	1042.188477	8403.498047	2421.154053	18.732613
648.800354	964.820801	8298.824219	2491.695313	20.819113
649.133179	1021.708862	8344.334961	2562.236328	21.037910
649.465881	1035.361938	8348.885742	2439.358398	19.197264
649.798462	1012.606750	8442.182617	2507.624023	20.122513
650.131104	1083.147949	8251.038086	2628.226563	21.555557
650.463623	1069.494751	8323.855469	2521.277100	20.012547
650.796143	1092.250000	8467.212891	2521.277100	19.376736
651.128662	1033.086426	8385.293945	2598.644775	21.293718
651.461060	1042.188477	8287.446289	2562.236328	20.979900
651.793396	1003.504700	8301.099609	2587.267090	21.702526
652.125732	976.198425	8371.640625	2553.134277	21.323076
652.458008	1033.086426	8428.529297	2578.165039	20.892307
652.790222	1019.433350	8419.426758	2637.328613	21.863470
653.122437	1030.810913	8269.242188	2375.643799	18.579065
653.454529	1051.290649	8401.222656	2464.388916	19.226004
653.786621	1012.606750	8291.998047	2516.726074	20.662708
654.118713	951.167725	8191.875000	2525.828125	21.747330
654.450623	983.024963	8198.701172	2407.500977	19.741407
654.782654	1010.331238	8139.538086	2439.358398	20.044685
655.114502	1012.606750	8100.854004	2448.460449	20.256824
655.446350	1012.606750	7843.720215	2439.358398	20.886080
655.778198	1023.984375	7959.771973	2498.521729	21.259840
656.109863	1101.352051	8071.272461	2414.327637	18.837742
656.441650	1051.290649	8034.863770	2475.766602	20.397522
656.773254	1092.250000	7814.138672	2521.277100	21.259310
657.104919	1012.606750	8175.946289	2471.215576	20.362135
657.436462	1046.739624	8105.405273	2489.419678	20.438425
657.767944	998.953613	7989.353516	2580.440674	22.623699
658.099548	1023.984375	8228.283203	2553.134277	21.225521
658.430908	1064.943726	8326.130859	2546.307861	20.401129
658.762268	1046.739624	8417.151367	2514.450439	19.913553
659.093628	1012.606750	8549.131836	2673.737061	22.041065
659.424927	907.932800	8892.735352	2616.848877	21.402107
659.756226	967.096313	9320.533203	2792.063965	21.846909
660.087341	1030.810913	9304.604492	2858.054199	22.084709
660.418518	1033.086426	9334.186523	2844.401123	21.820177
660.749573	1087.698975	9213.583984	2810.268311	21.198545
661.080627	992.127075	9229.512695	2757.931152	21.436462
661.411621	1044.463989	9020.164063	2650.981689	20.142654
661.742554	1005.780212	8890.459961	2744.278076	22.049061
662.073547	1035.361938	8540.029297	2600.920166	20.861128
662.404297	1051.290649	8542.304688	2612.297852	20.838396
662.735229	1051.290649	8230.558594	2516.726074	20.412045
663.065979	994.402588	8089.476563	2523.552490	21.552275
663.396667	1053.566162	7984.802734	2596.369141	22.258698
663.727417	1017.157776	7841.444824	2612.297852	23.374458
664.057922	978.473938	7643.474609	2377.919189	20.996927
664.388611	1035.361938	7557.004395	2373.368164	20.516399
664.719116	1017.157776	7591.137207	2491.695313	22.429909
665.049622	1001.229126	7450.055176	2391.572266	21.559631
665.380005	1019.433350	7488.738770	2459.837891	22.265211
665.710388	1021.708862	7374.962891	2389.296875	21.525789
666.040771	1001.229126	7379.514160	2448.460449	22.689976
666.371033	1010.331238	7406.820313	2412.052002	21.913906
666.701294	1021.708862	7256.635742	2341.510986	21.167885
667.031555	1008.055725	7131.482422	2352.888428	21.962095
667.361633	1010.331238	7188.370117	2389.296875	22.320440
667.691772	1030.810913	7074.594238	2425.705078	23.079819
668.021790	1053.566162	7095.073730	2371.092773	21.807911
668.351807	1080.872437	7286.217773	2421.154053	21.598824
668.681763	1005.780212	7204.298828	2364.266113	21.916298
669.011719	1110.454102	7281.666504	2393.847900	20.796461
669.341614	1042.188477	7240.707031	2459.837891	22.870777
669.671387	1067.219238	7327.176758	2430.256104	21.773899
670.001221	1039.912964	7329.452637	2409.776611	21.780031
670.330933	1064.943726	7402.269043	2350.613037	20.287254
670.660583	971.647400	7361.309570	2389.296875	22.186609
670.990173	967.096313	7334.003418	2475.766602	23.695498
671.319763	985.300537	7190.645508	2430.256104	23.285662
671.649292	1089.974487	7238.431641	2462.113525	22.316803
671.978821	1008.055725	7042.736816	2357.439453	22.360481
672.308289	932.963501	6976.746582	2257.316650	21.912651
672.637695	1055.841675	6812.909180	2348.337402	22.450592
672.966980	1019.433350	7004.053223	2325.582275	21.825094
673.296326	1030.810913	6858.419922	2384.745850	23.233112
673.625610	996.678101	6885.726074	2316.480225	22.411129
673.954773	983.024963	6849.317383	2314.204590	22.692011
674.283936	998.953613	6969.920410	2280.071777	21.455791
674.613037	1030.810913	6883.450195	2305.102539	21.772940
674.942078	989.851563	6960.818359	2330.133301	22.446646
675.271118	1005.780212	6685.479980	2339.235352	23.477564
675.600098	964.820801	6705.959961	2366.541748	24.415380
675.928955	1028.535400	6726.439453	2357.439453	23.322681
676.257813	951.167725	6756.021484	2282.347412	22.932184
676.586670	969.371887	6680.929199	2336.959961	23.944225
676.915466	962.545288	6803.807129	2300.551514	22.906116
677.244141	985.300537	6756.021484	2364.266113	23.895899
677.572876	1085.423462	6815.184570	2389.296875	22.756157
677.901489	1017.157776	6665.000488	2391.572266	24.335213
678.230042	1005.780212	6717.337402	2396.123291	24.342627
678.558594	1012.606750	6603.561523	2423.429688	25.234028
678.887085	1060.392700	6703.684082	2364.266113	23.104839
679.215515	1019.433350	6906.205566	2382.470215	23.154230
679.543945	1124.107300	6944.889648	2332.408936	20.758406
679.872253	1010.331238	6837.939941	2416.603027	24.131197
680.200562	1014.882263	7017.706055	2519.001465	25.056860
680.528809	951.167725	7170.166016	2484.868652	24.661543
680.856995	1005.780212	7265.737793	2546.307861	24.609234
681.185120	1064.943726	7393.166992	2505.348389	22.761597
681.513306	1076.321289	7500.116699	2466.664551	21.643642
681.841309	1049.015137	7208.850098	2503.072998	23.605469
682.169373	1042.188477	7283.941895	2569.062988	24.462269
682.497314	1108.178589	7195.196777	2514.450439	23.102804
682.825134	971.647400	7390.891602	2496.246338	23.750443
683.153076	1023.984375	6965.369141	2348.337402	22.290310
683.480896	967.096313	7042.736816	2446.184814	24.344568
683.808655	994.402588	6922.134277	2412.052002	23.915546
684.136414	985.300537	6851.593262	2384.745850	23.855701
684.464050	1028.535400	6701.408691	2391.572266	24.027275
684.791626	992.127075	6660.449219	2348.337402	23.926132
685.119263	946.616638	6430.621582	2405.225586	26.597513
685.446838	1026.259888	6533.020020	2327.857666	23.636362
685.774292	994.402588	6448.826172	2405.225586	25.865665
686.101685	1014.882263	6346.427734	2332.408936	24.711908
686.429077	998.953613	6407.866699	2298.276123	24.021877
686.756348	978.473938	6168.937012	2270.969727	24.901360
687.083679	1021.708862	6335.049805	2332.408936	24.668097
687.410950	994.402588	6314.570313	2282.347412	24.208725
687.738159	967.096313	6410.142090	2382.470215	26.003344
688.065308	1017.157776	6298.641602	2259.592041	23.524342
688.392395	998.953613	6432.897461	2327.857666	24.455608
688.719421	944.341125	6453.376953	2314.204590	24.865759
689.046448	1001.229126	6278.162109	2289.173828	24.407068
689.373413	983.024963	6412.417480	2339.235352	24.979046
689.700317	989.851563	6319.121094	2475.766602	27.882153
690.027100	1046.739624	6259.957520	2305.102539	24.137932
690.353943	1028.535400	6080.191406	2421.154053	27.567566
690.680725	1067.219238	6178.039063	2268.694336	23.508461
691.007446	996.678101	6030.129883	2293.724854	25.768536
691.334106	960.269775	5961.864258	2280.071777	26.387625
691.660645	1005.780212	5832.159668	2280.071777	26.402639
691.987244	1146.862427	5898.149902	2202.704102	22.222221
692.313721	994.402588	5713.832520	2218.632813	25.940216
692.640259	1030.810913	5563.648438	2138.989502	24.447790
692.966675	1099.076538	5677.424316	2102.581299	21.918491
693.293030	967.096313	5513.586914	2259.592041	28.428425
693.619324	978.473938	5625.087402	2047.968750	23.016653
693.945618	1010.331238	5620.536621	2102.581299	23.692001
694.271851	978.473938	5586.403809	2104.856689	24.444445
694.598083	1003.504700	5497.658203	2211.806152	26.886076
694.924194	1003.504700	5372.504395	2082.101563	24.687504
695.250244	1033.086426	5304.238770	2077.550537	24.453918
695.576294	1049.015137	5356.576172	2088.927979	24.141569
695.902283	1083.147949	5688.802246	2068.448486	21.393280
696.228210	1010.331238	5372.504395	2152.642578	26.186747
696.554138	1026.259888	5556.821777	2179.948975	25.464590
696.879944	1049.015137	5627.362793	2095.754639	22.862823
697.205750	989.851563	5629.638672	2184.500000	25.747915
697.531433	976.198425	5729.761230	2202.704102	25.801817
697.857178	996.678101	5843.537598	2232.285889	25.492958
698.182739	1005.780212	6009.650391	2261.867676	25.102318
698.508423	992.127075	6041.507813	2305.102539	26.002703
698.833984	1012.606750	6410.142090	2387.021240	25.463745
699.159485	1014.882263	6635.418457	2459.837891	25.708500
699.484924	1028.535400	6787.878418	2437.082764	24.456738
699.810303	1012.606750	6942.613770	2509.899414	25.249426
700.135681	989.851563	6958.542480	2503.072998	25.352652
700.460999	1019.433350	6963.093750	2528.103516	25.382847
700.786255	1030.810913	6610.387695	2482.593262	26.019579
701.111450	1001.229126	6451.101563	2450.735840	26.597075
701.436646	1035.361938	6232.651367	2318.755615	24.693520
701.761719	1014.882263	6109.773438	2284.622803	24.921837
702.086792	989.851563	5959.588867	2286.898438	26.098902
702.411865	1105.903076	5809.404785	2266.418701	24.673437
702.736816	1053.566162	5524.964355	2218.632813	26.055979
703.061646	978.473938	5356.576172	2177.673340	27.390852
703.386536	967.096313	5292.861328	2104.856689	26.301945
703.711365	1067.219238	5101.717773	2084.376953	25.211502
704.036194	1003.504700	5158.605469	2052.519775	25.246445
704.360901	1060.392700	5110.819824	2072.999512	25.000000
704.685547	989.851563	4933.329102	2034.315552	26.485861
705.010132	1014.882263	4967.461914	2091.203613	27.230856
705.334717	1030.810913	4815.001953	2034.315552	26.518341
705.659302	960.269775	4883.267578	2070.723877	28.306263
705.983765	1060.392700	4867.338867	2075.274902	26.658695
706.308228	1026.259888	4837.757324	2043.417725	26.686567
706.632568	1019.433350	4867.338867	2007.009399	25.665289
706.956909	1021.708862	4746.736328	2054.795166	27.733658
707.281189	978.473938	4778.593750	2000.182739	26.886225
707.605408	1035.361938	4737.634277	1931.917114	24.216349
707.929626	1033.086426	4780.869141	1954.672363	24.590164
708.253784	1003.504700	4792.246582	2022.937988	26.906908
708.577820	1058.117188	4835.481934	1984.254150	24.518070
708.901855	1058.117188	4830.930664	2136.714111	28.588663
709.225830	1033.086426	4871.890137	2120.785400	28.334322
709.549805	1053.566162	4851.410156	2013.835938	25.284603
709.873718	994.402588	4885.542969	2007.009399	26.023394
710.197510	930.687988	4981.115234	2013.835938	26.741573
710.521362	996.678101	4924.227051	1995.631714	25.434530
710.845093	987.576050	4851.410156	2093.479248	28.621912
711.168701	996.678101	5058.482910	2086.652588	26.834734
711.492432	1026.259888	5083.513672	2075.274902	25.855297
711.816040	1030.810913	5008.421387	2134.438477	27.745995
712.139587	1055.841675	5311.065430	2152.642578	25.775400
712.463074	1003.504700	5235.973145	2050.244141	24.731184
712.786499	1003.504700	5270.105957	2113.958740	26.026669
713.109924	980.749451	5138.125977	2116.234375	27.312534
713.433350	1030.810913	5017.523438	1981.978638	23.858448
713.756592	989.851563	4906.022949	1956.947876	24.694944
714.079834	1085.423462	4919.675781	2041.142212	24.925817
714.403015	1035.361938	4965.186523	2100.305664	27.099014
714.726196	1019.433350	4915.125000	2050.244141	26.460278
715.049255	969.371887	4924.227051	2047.968750	27.272728
715.372375	1049.015137	4883.267578	2002.458252	24.866467
715.695435	1021.708862	4801.349121	2063.897461	27.573751
716.018311	1001.229126	4906.022949	2016.111450	25.990675
716.341248	1014.882263	4801.349121	2077.550537	28.064903
716.664063	957.994263	4749.011719	1918.264038	25.330133
716.987000	1026.259888	4935.604492	1954.672363	23.748545
717.309692	983.024963	4774.042480	1881.855713	23.709486
717.632385	1001.229126	4730.807617	2041.142212	27.882858
717.955078	996.678101	4667.093262	1900.059814	24.612522
718.277649	1117.280762	4637.511230	1934.192627	23.206203
718.600220	1044.463989	4450.918457	1829.518677	23.046093
718.922791	951.167725	4485.051270	1922.815063	27.495171
719.245300	1076.321289	4455.469727	1875.029175	23.636366
719.567688	951.167725	4339.417969	1818.141113	25.587643
719.890015	983.024963	4305.285156	1865.927002	26.575342
720.212341	1062.668213	4255.224121	1886.406738	25.801851
720.534607	1103.627563	4141.447754	1820.416626	23.595505
720.856873	987.576050	4264.326172	1788.559326	24.444443
721.179016	1010.331238	3998.090088	1847.722900	28.027418
721.501160	985.300537	3973.059326	1745.324463	25.437927
721.823242	998.953613	3945.753174	1692.987427	23.552122
722.145264	1035.361938	3941.202148	1795.385864	26.155048
722.467224	969.371887	4114.141602	1806.763550	26.628075
722.789185	996.678101	4059.529053	1813.590088	26.671619
723.111023	946.616638	3959.406250	1799.937012	28.323265
723.432861	1060.392700	3925.273438	1718.018188	22.954723
723.754578	1003.504700	3857.007813	1758.977539	26.475275
724.076294	1003.504700	3834.252441	1745.324463	26.205788
724.397949	973.922913	3877.487549	1720.293701	25.705326
724.719666	983.024963	3793.293213	1677.058838	24.696356
725.041260	1017.157776	3882.038574	1649.752563	22.081015
725.362732	1053.566162	3900.242676	1715.742676	23.261389
725.684265	998.953613	3918.446777	1681.609863	23.382698
726.005676	1035.361938	3866.109863	1727.120239	24.437296
726.327087	967.096313	4016.294189	1670.232300	23.059704
726.648438	1017.157776	3938.926514	1583.762451	19.392523
726.969666	980.749451	4089.110840	1745.324463	24.597366
727.290894	980.749451	3925.273438	1784.008301	27.279753
727.612061	1074.045776	3918.446777	1820.416626	26.240002
727.933228	1028.535400	4048.151611	1731.671387	23.285608
728.254395	1019.433350	4171.029785	1829.518677	25.703968
728.575378	955.718750	4109.590332	1811.314575	27.128429
728.896301	1060.392700	4091.386475	1900.059814	27.702702
729.217285	1014.882263	4082.284424	1838.620850	26.854601
729.538147	998.953613	4175.580566	1779.457275	24.570202
729.858948	1071.770264	4141.447754	1790.834839	23.424759
730.179810	1058.117188	4111.866211	1852.273926	26.005960
730.500549	1021.708862	4168.753906	1768.079712	23.716562
730.821228	969.371887	4125.519043	1813.590088	26.748379
731.141846	1058.117188	4050.427002	1740.773438	22.813688
731.462402	937.514587	4175.580566	1779.457275	26.001408
731.782898	1042.188477	4193.784668	1736.222412	22.021664
732.103455	1058.117188	4200.611328	1793.110352	23.388847
732.423889	1074.045776	4259.774902	1820.416626	23.428574
732.744263	992.127075	4312.111816	1811.314575	24.674435
733.064636	960.269775	4177.855957	1829.518677	27.015560
733.384888	987.576050	4239.295410	1765.804199	23.932821
733.705200	980.749451	4321.213867	1768.079712	23.569485
734.025330	1078.596802	4241.570801	1772.630737	21.942448
734.345520	1105.903076	4216.540039	1834.069824	23.408928
734.665527	1039.912964	4252.948242	1820.416626	24.291788
734.985596	1021.708862	4111.866211	1856.824951	27.025036
735.305542	1076.321289	4086.835449	1797.661377	23.960693
735.625549	1035.361938	3968.508301	1688.436401	22.265320
735.945435	1026.259888	3907.069336	1706.640625	23.617693
736.265259	1153.689087	3948.028564	1815.865601	23.697069
736.585083	1017.157776	3973.059326	1672.507813	22.170902
736.904785	1069.494751	3761.435791	1711.191650	23.837704
737.224426	1105.903076	3829.701416	1765.804199	24.227238
737.544128	1039.912964	3759.160400	1743.048950	25.857740
737.863708	1005.780212	3868.385254	1686.160889	23.767885
738.183289	1035.361938	3706.823486	1686.160889	24.361158
738.502808	1012.606750	3897.967041	1806.763550	27.523661
738.822205	1017.157776	3772.813477	1667.956787	23.616848
739.141541	1010.331238	3811.497314	1765.804199	26.969946
739.460938	1033.086426	3902.518066	1747.599976	24.900873
739.780212	985.300537	4043.600586	1733.946899	24.479166
740.099426	992.127075	3970.783691	1761.253052	25.821236
740.418640	1017.157776	3952.579590	1747.599976	24.883720
740.737793	1003.504700	3927.548828	1761.253052	25.914394
741.056885	1003.504700	3838.803711	1720.293701	25.280895
741.375977	987.576050	3752.333740	1706.640625	26.008230
741.694946	1030.810913	3779.640137	1722.569214	25.165562
742.013855	1037.637451	3804.670898	1581.486938	19.654604
742.332703	1046.739624	3677.241699	1565.558350	19.723183
742.651550	957.994263	3618.078125	1647.477051	25.919588
742.970398	919.310425	3752.333740	1677.058838	26.746986
743.289124	1019.433350	3556.638916	1592.864502	22.600895
743.607788	957.994263	3704.547852	1590.588989	23.032309
743.926453	1026.259888	3479.271240	1576.935913	22.448980
744.245056	1049.015137	3699.996826	1738.497925	26.008583
744.563599	1026.259888	3536.159424	1674.783325	25.838623
744.882141	1033.086426	3486.097900	1667.956787	25.881264
745.200500	1023.984375	3486.097900	1640.650513	25.046211
745.518860	1069.494751	3426.934326	1652.028076	24.710426
745.837219	1019.433350	3565.741211	1615.619751	23.413759
746.155518	1010.331238	3436.036377	1620.170776	25.140713
746.473755	1008.055725	3395.077148	1640.650513	26.501429
746.791992	1028.535400	3476.995850	1647.477051	25.278809
747.110107	1049.015137	3424.658691	1645.201538	25.095785
747.428162	1005.780212	3413.281250	1647.477051	26.654064
747.746216	964.820801	3463.342773	1601.966675	25.500912
748.064148	951.167725	3267.647949	1652.028076	30.255400
748.382080	978.473938	3486.097900	1647.477051	26.678764
748.700073	992.127075	3340.464600	1713.467163	30.717054
749.017822	976.198425	3429.209961	1595.140137	25.231913
749.335632	987.576050	3306.331787	1595.140137	26.202158
749.653320	987.576050	3447.414063	1677.058838	28.029602
749.971008	1017.157776	3465.618164	1583.762451	23.141264
750.288696	985.300537	3467.893799	1640.650513	26.397799
750.606262	1019.433350	3317.709229	1672.507813	28.415842
750.923828	983.024963	3335.913574	1595.140137	26.015476
751.241272	1039.912964	3431.485352	1547.354126	21.217890
751.558716	1005.780212	3379.148438	1638.375000	26.653883
751.876038	1005.780212	3249.443604	1683.885376	30.223125
752.193481	1023.984375	3258.545898	1590.588989	25.356411
752.510681	1019.433350	3247.168213	1622.446289	27.068434
752.827942	1055.841675	3181.177979	1661.130127	28.479654
753.145081	983.024963	3445.138428	1551.905151	23.105360
753.462219	1012.606750	3310.882813	1677.058838	28.910891
753.779297	996.678101	3360.944336	1606.517700	25.794033
754.096375	1033.086426	3397.352539	1617.895264	24.735323
754.413330	1053.566162	3267.647949	1695.262939	28.982523
754.730286	1026.259888	3292.678711	1601.966675	25.401606
755.047119	1037.637451	3222.137451	1572.384888	24.479168
755.363892	971.647400	3345.015625	1561.007324	24.832216
755.680725	1074.045776	3324.535889	1551.905151	21.233568
755.997498	1101.352051	3331.362549	1485.915039	17.244896
756.314148	1017.157776	3233.515137	1485.915039	21.149895
756.630737	1058.117188	3244.892578	1658.854614	27.471382
756.947327	980.749451	3197.106689	1622.446289	28.952772
757.263855	953.443237	3190.280273	1586.037964	28.280771
757.580261	1060.392700	3315.433838	1538.252075	21.190718
757.896729	1028.535400	3226.688477	1608.793213	26.397516
758.213074	1037.637451	3390.525879	1485.915039	19.052225
758.529419	1030.810913	3319.984863	1572.384888	23.658054
758.845642	994.402588	3304.056152	1652.028076	28.472906
759.161865	1003.504700	3306.331787	1624.721802	26.976280
759.478149	1089.974487	3356.393066	1613.344238	23.092371
759.794189	1039.912964	3370.046387	1554.180664	22.070313
760.110229	964.820801	3422.383301	1604.242188	26.018520
760.426270	992.127075	3397.352539	1599.691162	25.260170
760.742249	1067.219238	3319.984863	1626.997314	24.848482
761.058105	994.402588	3265.372314	1740.773438	32.865734
761.374023	1064.943726	3367.770752	1645.201538	25.197628
761.689819	1023.984375	3372.321777	1588.313477	24.031006
762.005554	1078.596802	3208.484375	1692.987427	28.846151
762.321289	1051.290649	3406.454590	1599.691162	23.285025
762.636902	1026.259888	3472.444824	1665.681274	26.139534
762.952515	1028.535400	3531.608398	1649.752563	24.818180
763.268127	980.749451	3527.057129	1715.742676	28.865061
763.583618	1035.361938	3563.465576	1681.609863	25.562557
763.899048	978.473938	4007.192139	1824.967651	27.948910
764.214478	1039.912964	4339.417969	1915.988525	26.551727
764.529785	973.922913	4603.378418	2002.458252	28.338558
764.845093	976.198425	4842.308105	2072.999512	28.369631
765.160400	1051.290649	4746.736328	2000.182739	25.677338
765.475586	1060.392700	4612.480469	1913.713013	24.023064
765.790771	1037.637451	4480.500488	2020.662476	28.552546
766.105835	985.300537	4211.988770	1918.264038	28.913965
766.420837	989.851563	4061.804688	1893.233276	29.407406
766.735840	1010.331238	3938.926514	1799.937012	26.961929
767.050842	1026.259888	3659.037354	1720.293701	26.361280
767.365662	1044.463989	3583.945313	1681.609863	25.089605
767.680542	917.034912	3577.118652	1672.507813	28.400343
767.995300	989.851563	3499.750977	1656.579102	26.563915
768.309998	1026.259888	3451.965088	1649.752563	25.703566
768.624817	1019.433350	3395.077148	1601.966675	24.521072
768.939392	985.300537	3390.525879	1656.579102	27.909176
769.254028	1035.361938	3137.943115	1551.905151	24.567101
769.568481	1019.433350	3301.780762	1579.211426	24.526419
769.882935	1067.219238	3185.729004	1586.037964	24.489796
770.197388	1053.566162	3199.382324	1601.966675	25.556734
770.511841	1074.045776	3194.831299	1631.548462	26.287554
770.826172	1039.912964	3137.943115	1513.221313	22.559652
771.140442	1005.780212	3140.218750	1588.313477	27.292109
771.454651	967.096313	3015.064941	1615.619751	31.666668
771.768860	1064.943726	3046.922363	1513.221313	22.617680
772.082886	1026.259888	2960.452637	1524.598877	25.764702
772.397034	980.749451	3078.779541	1517.772339	25.596531
772.711060	928.412476	2983.207764	1608.793213	33.111847
773.025024	987.576050	2928.595215	1567.833862	29.894491
773.338928	1035.361938	3090.157227	1558.731689	25.470650
773.652771	1023.984375	3017.340576	1529.150024	25.342468
773.966614	1076.321289	2894.462402	1535.976563	25.281607
774.280457	1044.463989	2771.584229	1460.884399	24.110678
774.594116	1014.882263	2969.554688	1465.435425	23.050060
774.907776	1026.259888	2873.982666	1476.812988	24.384237
775.221375	996.678101	2885.360352	1438.129150	23.373495
775.534912	985.300537	2810.268311	1504.119263	28.428925
775.848450	1058.117188	2762.482178	1424.476074	21.495331
776.161926	983.024963	2757.931152	1472.261963	27.564104
776.475342	1051.290649	2842.125488	1438.129150	21.601015
776.788696	1051.290649	2867.156250	1481.364014	23.684206
777.101990	1039.912964	2885.360352	1522.323364	26.140566
777.415283	971.647400	2696.492188	1495.017212	30.343010
777.728516	994.402588	2755.655762	1549.629639	31.524546
778.041626	1035.361938	2753.380127	1570.109375	31.125832
778.354736	1001.229126	2696.492188	1483.639526	28.456375
778.667725	1046.739624	2682.839111	1510.945801	28.372736
778.980774	1019.433350	2646.430664	1545.078613	32.307690
779.293640	1023.984375	2732.900391	1422.200562	23.302267
779.606567	1005.780212	2671.461426	1454.057739	26.912565
779.919434	928.412476	2737.451416	1472.261963	30.062895
780.232239	1014.882263	2696.492188	1474.537476	27.334236
780.544983	1026.259888	2732.900391	1449.506714	24.799999
780.857666	1039.912964	2662.359375	1422.200562	23.562418
781.170227	1035.361938	2687.390137	1490.466064	27.548206
781.482849	980.749451	2614.573486	1447.231201	28.551531
781.795410	1039.912964	2719.247314	1522.323364	28.726286
782.107910	1071.770264	2691.941162	1522.323364	27.808987
782.420288	1067.219238	2703.318604	1456.333252	23.783031
782.732666	1019.433350	2757.931152	1472.261963	26.047121
783.044983	1044.463989	2548.583252	1401.720825	23.751896
783.357300	962.545288	2632.777588	1419.924927	27.384193
783.669495	980.749451	2653.257324	1365.312500	22.993198
783.981689	964.820801	2655.532715	1460.884399	29.340515
784.293762	1008.055725	2594.093750	1417.649414	25.824959
784.605835	1067.219238	2550.858887	1449.506714	25.766869
784.917908	944.341125	2484.868652	1444.955688	32.496307
785.229858	1076.321289	2534.930176	1451.782227	25.741030
785.541748	969.371887	2405.225586	1406.271851	30.427887
785.853577	1037.637451	2484.868652	1383.516602	23.899370
786.165405	1010.331238	2448.460449	1383.516602	25.949364
786.477173	1001.229126	2507.624023	1431.302612	28.549850
786.788879	1060.392700	2425.705078	1365.312500	22.333336
787.100525	1003.504700	2437.082764	1340.281738	23.492060
787.412109	1112.729614	2471.215576	1417.649414	22.445560
787.723694	1001.229126	2462.113525	1378.965576	25.856697
788.035156	1067.219238	2478.042236	1344.832764	19.677418
788.346558	1005.780212	2466.664551	1474.537476	32.087227
788.658081	1023.984375	2632.777588	1431.302612	25.318247
788.969360	1069.494751	2623.675537	1463.159912	25.329432
789.280640	1026.259888	2748.829102	1522.323364	28.797884
789.591919	1033.086426	2739.727051	1435.853638	23.600002
789.903076	1033.086426	2753.380127	1481.364014	26.058201
790.214172	1012.606750	2753.380127	1465.435425	26.013073
790.525269	1019.433350	2607.746826	1417.649414	25.071629
790.836365	948.892151	2607.746826	1438.129150	29.492456
791.147339	1067.219238	2534.930176	1406.271851	23.100777
791.458191	998.953613	2498.521729	1376.690063	25.189682
791.769104	1076.321289	2489.419678	1401.720825	23.027380
792.079895	1001.229126	2466.664551	1385.792114	26.242233
792.390686	1033.086426	2336.959961	1374.414551	26.178009
792.701416	1074.045776	2382.470215	1331.179688	19.652180
793.012085	1026.259888	2352.888428	1272.016113	18.524872
793.322693	1035.361938	2393.847900	1326.628662	21.440540
793.633240	1033.086426	2373.368164	1365.312500	24.787779
793.943787	1014.882263	2373.368164	1360.761475	25.460642
794.254272	1078.596802	2366.541748	1353.934937	21.378098
794.564636	1042.188477	2307.378174	1333.455200	23.021585
794.875000	1051.290649	2332.408936	1333.455200	22.024864
795.185303	1017.157776	2318.755615	1328.904175	23.951054
795.495544	983.024963	2389.296875	1312.975464	23.462780
795.805786	1001.229126	2332.408936	1410.822876	30.769228
796.115906	1053.566162	2393.847900	1406.271851	26.315786
796.426025	971.647400	2446.184814	1353.934937	25.925932
796.736023	955.718750	2393.847900	1444.955688	34.018986
797.045959	1003.504700	2478.042236	1447.231201	30.092587
797.355896	1037.637451	2455.286865	1410.822876	26.324240
797.665833	1028.535400	2498.521729	1435.853638	27.708981
797.975708	1039.912964	2441.633789	1310.699951	19.318182
798.285461	983.024963	2409.776611	1322.077637	23.763958
798.595154	978.473938	2321.031250	1383.516602	30.169487
798.904846	996.678101	2393.847900	1374.414551	27.035830
799.214478	983.024963	2446.184814	1367.588013	26.283051
799.524109	1001.229126	2309.653564	1365.312500	27.826092
799.833557	973.922913	2293.724854	1383.516602	31.034479
800.143005	1055.841675	2409.776611	1367.588013	23.025208
800.452393	1003.504700	2227.734863	1276.567139	22.304827
800.761780	1021.708862	2257.316650	1294.771362	22.099447
801.071106	1023.984375	2252.765625	1369.863525	28.148148
801.380371	1005.780212	2204.979736	1392.618774	32.258068
801.689575	1019.433350	2200.428711	1347.108276	27.745657
801.998718	1014.882263	2252.765625	1431.302612	33.639709
802.307800	1019.433350	2257.316650	1406.271851	31.249998
802.616882	1055.841675	2075.274902	1338.006226	27.678572
802.925903	960.269775	2293.724854	1328.904175	27.645056
803.234863	1055.841675	2204.979736	1317.526489	22.772270
803.543701	1005.780212	2173.122314	1306.148926	25.730995
803.852539	1035.361938	2161.744873	1319.802124	25.252529
804.161316	1049.015137	2152.642578	1322.077637	24.742271
804.470032	967.096313	2043.417725	1353.934937	35.940807
804.778809	989.851563	2175.397949	1333.455200	28.982723
805.087341	1069.494751	2179.948975	1278.842651	18.852457
805.395935	1087.698975	2145.816162	1262.914063	16.559137
805.704468	1019.433350	2150.367188	1274.291626	22.535206
806.012939	1035.361938	2241.387939	1303.873413	22.264153
806.321350	1064.943726	2309.653564	1315.250977	20.109688
806.629761	1055.841675	2216.357178	1333.455200	23.921570
806.938049	1028.535400	2225.459229	1306.148926	23.193918
807.246277	996.678101	2234.561523	1344.832764	28.124996
807.554504	1046.739624	2318.755615	1351.659302	23.971371
807.862671	1010.331238	2170.846924	1319.802124	26.666672
808.170715	1010.331238	2298.276123	1399.445313	30.212015
808.478821	1035.361938	2264.143311	1297.046875	21.296297
808.786804	1001.229126	2259.592041	1360.761475	28.571436
809.094727	980.749451	2193.602051	1328.904175	28.705446
809.402649	1001.229126	2202.704102	1328.904175	27.272732
809.710510	1039.912964	2068.448486	1308.424438	26.106194
810.018311	1055.841675	2198.153076	1290.220337	20.517931
810.326050	1030.810913	2077.550537	1388.067749	34.130440
810.633667	1021.708862	2079.825928	1340.281738	30.107527
810.941345	983.024963	2134.438477	1256.087524	23.715420
811.248901	957.994263	2164.020264	1342.557251	31.886791
811.556396	994.402588	2138.989502	1290.220337	25.844936
811.863892	1005.780212	2025.213501	1335.730713	32.366070
812.171326	1042.188477	2013.835938	1226.505737	18.969561
812.478699	980.749451	2020.662476	1297.046875	30.415756
812.786011	1003.504700	2000.182739	1258.363037	25.570780
813.093262	1046.739624	2045.693237	1242.434326	19.589970
813.400391	1003.504700	1984.254150	1331.179688	33.410671
813.707642	1001.229126	1995.631714	1299.322388	29.977121
814.014709	923.861450	1966.049927	1281.118164	34.279472
814.321716	1046.739624	2007.009399	1287.944824	25.118483
814.628723	1037.637451	2059.346436	1272.016113	22.939865
814.935669	1010.331238	1988.805176	1260.638550	25.581398
815.242554	1046.739624	1972.876587	1319.802124	29.484030
815.549438	1028.535400	1918.264038	1260.638550	26.086960
815.856201	1074.045776	2013.835938	1253.812012	19.128338
816.162964	1010.331238	2002.458252	1237.883301	22.935780
816.469604	1023.984375	1902.335449	1278.842651	29.015537
816.776184	969.371887	2029.764526	1265.189575	27.896997
817.082825	998.953613	2143.540527	1130.933838	11.530817
817.389343	1053.566162	2029.764526	1260.638550	21.212122
817.695801	1033.086426	2032.040039	1312.975464	28.018221
818.002197	987.576050	2072.999512	1258.363037	24.947590
818.308533	1062.668213	2047.968750	1249.260864	18.937637
818.614868	1010.331238	2027.489014	1292.495850	27.740496
818.921143	1010.331238	2088.927979	1347.108276	31.223631
819.227356	1023.984375	2009.284912	1308.424438	28.868355
819.533447	962.545288	2136.714111	1317.526489	30.232552
819.839539	1003.504700	2111.683350	1340.281738	30.390139
820.145569	989.851563	2211.806152	1429.027100	35.940414
820.451538	1096.801025	2282.347412	1367.588013	22.840691
820.757568	1033.086426	2525.828125	1422.200562	26.067078
821.063416	1012.606750	2559.960938	1488.190552	30.735289
821.369263	1021.708862	2685.114502	1526.874512	30.369360
821.675049	969.371887	2726.073975	1513.221313	30.958546
821.980713	983.024963	2899.013428	1531.425537	28.622332
822.286438	996.678101	3147.045166	1576.935913	26.984127
822.592102	1019.433350	3998.090088	1834.069824	27.349123
822.897583	1001.229126	5727.485840	2339.235352	28.310062
823.203125	948.892151	8037.139648	2937.697266	28.057783
823.508545	989.851563	9859.832031	3488.373291	28.168289
823.813965	1035.361938	10299.006836	3538.434814	27.020390
824.119263	994.402588	9279.574219	3310.882813	27.959351
824.424622	992.127075	8003.006836	2946.799316	27.880556
824.729858	994.402588	6696.857910	2580.440674	27.813250
825.035095	1030.810913	5934.558105	2414.327637	28.213461
825.340149	1010.331238	5281.483887	2211.806152	28.129990
825.645264	1042.188477	4799.073242	2029.764526	26.287100
825.950256	1019.433350	4325.765137	1925.090576	27.391602
826.255310	1030.810913	4004.916504	1929.641602	30.221884
826.560242	1044.463989	3913.895752	1956.947876	31.800161
826.865112	983.024963	3613.527100	1843.171875	32.698963
827.169922	1019.433350	3413.281250	1727.120239	29.562735
827.474670	1026.259888	3725.027588	1806.763550	28.920744
827.779419	1062.668213	4011.743164	1897.784302	28.317900
828.084045	1049.015137	4632.960449	2057.070801	28.126982
828.388672	1026.259888	4844.583984	2152.642578	29.499399
828.693176	1051.290649	4969.737305	2100.305664	26.771194
828.997681	939.790100	4291.632324	1881.855713	28.105906
829.302124	1067.219238	3982.161377	1831.794189	26.229507
829.606567	983.024963	3506.577637	1729.395752	29.576191
829.910828	1028.535400	3188.004639	1567.833862	24.973658
830.215149	1019.433350	3085.606201	1581.486938	27.202641
830.519348	1101.352051	2908.115479	1479.088501	20.906801
830.823547	967.096313	2650.981689	1476.812988	30.270271
831.127686	1010.331238	2541.756836	1435.853638	27.786032
831.431763	978.473938	2293.724854	1388.067749	31.141874
831.735779	1053.566162	2268.694336	1351.659302	24.531826
832.039734	1021.708862	2223.183838	1315.250977	24.431812
832.343628	1044.463989	2132.163086	1308.424438	24.267782
832.647461	969.371887	2173.122314	1340.281738	30.812851
832.951233	923.861450	2164.020264	1315.250977	31.559629
833.255127	1039.912964	2145.816162	1294.771362	23.045271
833.558777	1030.810913	2280.071777	1353.934937	25.865215
833.862366	1042.188477	2352.888428	1442.680176	30.555559
834.165955	1035.361938	2635.052979	1397.169800	22.617359
834.469482	996.678101	2962.728027	1540.527588	27.662039
834.773010	1026.259888	3233.515137	1652.028076	28.350512
835.076416	996.678101	3613.527100	1702.089600	26.956522
835.379822	1074.045776	3529.332764	1708.916138	25.857275
835.683105	1064.943726	3285.852051	1624.721802	25.204918
835.986389	1046.739624	2980.932129	1524.598877	24.705879
836.289612	1001.229126	2757.931152	1542.803101	30.829018
836.592773	964.820801	2710.145264	1415.373901	25.814861
836.895874	1042.188477	2516.726074	1483.639526	29.938271
837.198914	969.371887	2346.062012	1401.720825	31.404955
837.501892	1033.086426	2309.653564	1319.802124	22.459900
837.804871	1076.321289	2132.163086	1363.036987	27.155176
838.107666	1051.290649	2141.265137	1338.006226	26.304796
838.410583	1053.566162	1993.356201	1276.567139	23.728807
838.713379	973.922913	1920.539551	1242.434326	28.365381
839.016052	1039.912964	1877.304688	1290.220337	29.891312
839.318787	969.371887	1927.366089	1228.781250	27.078386
839.621338	1014.882263	1863.651489	1256.087524	28.418238
839.923889	978.473938	1745.324463	1249.260864	35.311565
840.226440	1010.331238	1788.559326	1331.179688	41.228073
840.528931	989.851563	1854.549438	1251.536499	30.263165
840.831299	1017.157776	1968.325439	1169.617676	16.028709
841.133606	1039.912964	2082.101563	1292.495850	24.235813
841.435913	1058.117188	2104.856689	1349.383789	27.826082
841.738220	1055.841675	2077.550537	1317.526489	25.612465
842.040405	1037.637451	1966.049927	1338.006226	32.352943
842.342529	1058.117188	1909.161987	1235.607788	20.855612
842.644592	998.953613	1806.763550	1269.740601	33.521126
842.946594	1014.882263	1809.039063	1201.474976	23.495701
843.248596	994.402588	1811.314575	1228.781250	28.690809
843.550598	973.922913	1818.141113	1151.413574	21.024263
843.852478	1069.494751	1738.497925	1190.097412	18.027218
844.154236	1039.912964	1681.609863	1171.893188	20.567377
844.455994	1012.606750	1704.365112	1210.577026	28.618414
844.757690	996.678101	1622.446289	1140.035889	22.909088
845.059326	1019.433350	1538.252075	1153.689087	25.877195
845.360962	1028.535400	1581.486938	1190.097412	29.218115
845.662476	998.953613	1663.405762	1142.311401	21.575336
845.963989	1080.872437	1492.741699	1158.240112	18.784523
846.265381	1049.015137	1472.261963	1108.178589	13.978475
846.566772	1005.780212	1460.884399	1133.209351	27.999992
846.868042	1033.086426	1572.384888	1149.138062	21.518999
847.169373	1051.290649	1526.874512	1121.831787	14.832534
847.470581	1014.882263	1572.384888	1146.862427	23.673460
847.771729	1049.015137	1538.252075	1074.045776	5.116261
848.072815	969.371887	1492.741699	1201.474976	44.347816
848.373901	1001.229126	1522.323364	1233.332275	44.541492
848.674866	1064.943726	1419.924927	1135.484863	19.871796
848.975891	998.953613	1488.190552	1142.311401	29.302322
849.276794	937.514587	1463.159912	1128.658325	36.363632
849.577637	1105.903076	1479.088501	1096.801025	-2.439016
849.878357	1008.055725	1481.364014	1149.138062	29.807705
850.179077	1001.229126	1442.680176	1169.617676	38.144333
850.479736	978.473938	1510.945801	1151.413574	32.478642
850.780396	978.473938	1472.261963	1153.689087	35.483879
851.080994	1046.739624	1426.751587	1128.658325	21.556875
851.381470	1005.780212	1422.200562	1235.607788	55.191246
851.681946	992.127075	1488.190552	1110.454102	23.853203
851.982361	1028.535400	1438.129150	1165.066650	33.333332
852.282715	1005.780212	1429.027100	1092.250000	20.430105
852.583008	998.953613	1520.047852	1142.311401	27.510914
852.883240	1037.637451	1515.496826	1135.484863	20.476194
853.183411	985.300537	1474.537476	1105.903076	24.651152
853.483521	1008.055725	1422.200562	1149.138062	34.065941
853.783630	985.300537	1360.761475	1153.689087	44.848488
854.083679	1033.086426	1360.761475	1137.760376	31.944437
854.383667	1069.494751	1504.119263	1210.577026	32.460728
854.683533	1028.535400	1449.506714	1115.005249	20.540556
854.983337	989.851563	1415.373901	1169.617676	42.245987
855.283203	985.300537	1397.169800	1160.515625	42.541435
855.582886	1001.229126	1419.924927	1094.525513	22.282618
855.882629	1028.535400	1392.618774	1071.770264	11.874990
856.182312	989.851563	1360.761475	1140.035889	40.490784
856.481873	964.820801	1317.526489	1135.484863	48.387104
856.781372	1021.708862	1363.036987	1155.964600	39.333336
857.080872	1005.780212	1429.027100	1151.413574	34.408607
857.380310	1060.392700	1449.506714	1140.035889	20.467829
857.679688	987.576050	1397.169800	1099.076538	27.222214
857.979004	1039.912964	1426.751587	1144.586914	27.058815
858.278259	1023.984375	1388.067749	1030.810913	1.874993
858.577454	1055.841675	1472.261963	1085.423462	7.103829
858.876648	973.922913	1431.302612	1130.933838	34.328354
859.175720	1099.076538	1369.863525	1078.596802	-7.563043
859.474792	1030.810913	1474.537476	1094.525513	14.358978
859.773743	1001.229126	1442.680176	1126.382813	28.350525
860.072693	1030.810913	1388.067749	1103.627563	20.382158
860.371521	935.239075	1438.129150	1105.903076	33.936642
860.670349	1053.566162	1449.506714	1074.045776	5.172396
860.969116	1058.117188	1415.373901	1083.147949	7.006380
861.267883	1033.086426	1429.027100	1071.770264	9.770109
861.566589	1014.882263	1403.996338	1117.280762	26.315804
861.865112	1046.739624	1442.680176	1128.658325	20.689646
862.163635	1008.055725	1358.485962	1087.698975	22.727276
862.462158	1046.739624	1401.720825	1112.729614	18.589714
862.760620	1023.984375	1349.383789	1101.352051	23.776218
863.059021	1010.331238	1378.965576	1201.474976	51.851852
863.357361	996.678101	1422.200562	1124.107300	29.946527
863.655640	1076.321289	1440.404663	1124.107300	13.125019
863.953857	1005.780212	1367.588013	1083.147949	21.383656
864.251953	987.576050	1397.169800	1076.321289	21.666649
864.550110	1135.484863	1401.720825	1146.862427	4.273489
864.848206	1069.494751	1440.404663	1119.556274	13.496949
865.146179	989.851563	1390.343262	1140.035889	37.499985
865.444092	1030.810913	1385.792114	1167.342163	38.461544
865.741943	1042.188477	1442.680176	1217.403687	43.750023
866.039795	998.953613	1433.578125	1153.689087	35.602104
866.337646	1046.739624	1390.343262	1071.770264	7.284742
866.635376	985.300537	1429.027100	1110.454102	28.205111
866.933044	1094.525513	1413.098389	1044.463989	-15.714308
867.230652	1046.739624	1456.333252	1033.086426	-3.333352
867.528198	1033.086426	1390.343262	1078.596802	12.738840
867.825745	960.269775	1474.537476	1092.250000	25.663721
868.123230	980.749451	1378.965576	1165.066650	46.285721
868.420593	1053.566162	1419.924927	1058.117188	1.242232
868.717896	1017.157776	1376.690063	1144.586914	35.443031
869.015198	1019.433350	1319.802124	1074.045776	18.181793
869.312439	1014.882263	1413.098389	1101.352051	21.714285
869.609619	1037.637451	1281.118164	1128.658325	37.383198
869.906738	985.300537	1456.333252	1051.290649	14.009666
870.203796	939.790100	1349.383789	1078.596802	33.888878
870.500854	987.576050	1406.271851	1137.760376	35.869556
870.797791	1058.117188	1363.036987	1105.903076	15.671625
871.094666	996.678101	1415.373901	1128.658325	31.521746
871.391602	1008.055725	1340.281738	1105.903076	29.452044
871.688293	1042.188477	1449.506714	1119.556274	18.994434
871.985107	992.127075	1360.761475	1087.698975	25.925930
872.281738	1001.229126	1429.027100	1083.147949	19.148951
872.578369	1042.188477	1376.690063	1074.045776	9.523811
872.874939	1017.157776	1356.210449	1039.912964	6.711402
873.171509	1030.810913	1394.894287	1089.974487	16.250008
873.467957	1023.984375	1429.027100	1117.280762	23.033714
873.764343	944.341125	1381.241089	1162.791138	50.000008
874.060669	1019.433350	1385.792114	1083.147949	17.391314
874.356995	1008.055725	1369.863525	1010.331238	0.628929
874.653198	1053.566162	1358.485962	1108.178589	17.910423
874.949463	1005.780212	1481.364014	1158.240112	32.057419
875.245544	1055.841675	1424.476074	1121.831787	17.901236
875.541626	1001.229126	1401.720825	1146.862427	36.363625
875.837646	1055.841675	1401.720825	1149.138062	26.973696
876.133606	1021.708862	1401.720825	1117.280762	25.149708
876.429565	1019.433350	1401.720825	1119.556274	26.190479
876.725403	1069.494751	1401.720825	1071.770264	0.684929
877.021179	1046.739624	1369.863525	1217.403687	52.816910
877.316956	1030.810913	1390.343262	1190.097412	44.303802
877.612610	1062.668213	1381.241089	1117.280762	17.142874
877.908203	1108.178589	1363.036987	1069.494751	-15.178561
878.203857	1014.882263	1374.414551	1053.566162	10.759506
878.499390	1005.780212	1417.649414	1085.423462	19.337025
878.794800	1003.504700	1401.720825	1099.076538	23.999992
879.090271	1014.882263	1390.343262	1055.841675	10.909099
879.385559	1017.157776	1474.537476	1242.434326	49.253727
879.680847	923.861450	1422.200562	1144.586914	44.292221
879.976196	1035.361938	1451.782227	1151.413574	27.868872
880.271301	1001.229126	1520.047852	1199.199463	38.157902
880.566467	1017.157776	1572.384888	1171.893188	27.868851
880.861572	1046.739624	1658.854614	1240.158813	31.598505
881.156555	1028.535400	1802.212524	1244.709839	27.941170
881.451477	1062.668213	2072.999512	1276.567139	21.171167
881.746460	1030.810913	2596.369141	1474.537476	28.343025
882.041321	998.953613	3365.495361	1642.926025	27.211538
882.336121	1010.331238	4086.835449	1795.385864	25.517750
882.630798	971.647400	4460.020996	1947.845825	27.984343
882.925537	1030.810913	4496.429199	2002.458252	28.036768
883.220215	985.300537	4305.285156	1884.131226	27.073339
883.514771	1026.259888	3970.783691	1836.345337	27.511593
883.809326	1005.780212	3718.200928	1788.559326	28.859060
884.103760	1021.708862	3324.535889	1606.517700	25.395256
884.398132	1037.637451	3149.320801	1649.752563	28.987068
884.692505	1087.698975	2987.758789	1599.691162	26.946110
884.986816	983.024963	2842.125488	1563.282837	31.211752
885.281067	967.096313	2676.012451	1460.884399	28.894812
885.575256	978.473938	2421.154053	1401.720825	29.337542
885.869385	1060.392700	2350.613037	1376.690063	24.514988
886.163452	1058.117188	2198.153076	1356.210449	26.147709
886.457458	1021.708862	1977.427612	1303.873413	29.523806
886.751465	994.402588	1772.630737	1215.128052	28.362564
887.045410	1062.668213	1706.640625	1099.076538	5.653709
887.339233	1110.454102	1756.702026	1183.270874	11.267622
887.632996	1071.770264	1656.579102	1201.474976	22.178993
887.926758	1037.637451	1601.966675	1201.474976	29.032259
888.220398	1026.259888	1608.793213	1201.474976	30.078123
888.514099	1067.219238	1520.047852	1153.689087	19.095491
888.807678	1099.076538	1526.874512	1215.128052	27.127645
889.101196	987.576050	1535.976563	1105.903076	21.576754
889.394653	1012.606750	1413.098389	1126.382813	28.409098
889.688049	1003.504700	1510.945801	1121.831787	23.318388
889.981384	1021.708862	1442.680176	1144.586914	29.189175
890.274719	996.678101	1460.884399	1115.005249	25.490208
890.567932	1014.882263	1385.792114	1155.964600	38.036827
>>>>>End Processed Spectral Data<<<<<
