Jaz Data File
++++++++++++++++++++++++++++++++++++
Date: Wed Feb 07 06:37:32 2024
User: jaz
Dark Spectrum Present: Yes
Reference Spectrum Present: Yes
Processed Spectrum Present: Yes
Spectrometers: JAZA3692
Integration Time (usec): 40000 (JAZA3692)
Spectra Averaged: 1 (JAZA3692)
Boxcar Smoothing: 0 (JAZA3692)
Correct for Electrical Dark: No (JAZA3692)
Strobe/Lamp Enabled: Yes (JAZA3692)
Correct for Detector Non-linearity: No (JAZA3692)
Correct for Stray Light: No (JAZA3692)
Number of Pixels in Processed Spectrum: 2048
>>>>>Begin Processed Spectral Data<<<<<
W	D	R	S	P
190.244385	0.000000	0.000000	0.000000	0.000000
190.627136	0.000000	0.000000	0.000000	0.000000
191.009842	1221.954712	1244.709839	1274.291626	230.000534
191.392532	1335.730713	1244.709839	1196.923950	152.499924
191.775177	1317.526489	1301.597900	1237.883301	500.001526
192.157791	1219.679199	1292.495850	1253.812012	46.875011
192.540390	1322.077637	1281.118164	1285.669312	88.888657
192.922943	1274.291626	1312.975464	1269.740601	-11.764668
193.305481	1333.455200	1312.975464	1231.056763	499.998810
193.687958	1281.118164	1272.016113	1276.567139	50.000000
194.070419	1290.220337	1285.669312	1244.709839	1000.005371
194.452866	1244.709839	1265.189575	1308.424438	311.110443
194.835251	1290.220337	1306.148926	1251.536499	-242.857910
195.217621	1299.322388	1349.383789	1267.465088	-63.636452
195.599960	1312.975464	1301.597900	1322.077637	-80.001076
195.982254	1297.046875	1297.046875	1310.699951	0.000000
196.364517	1297.046875	1310.699951	1274.291626	-166.667557
196.746750	1326.628662	1365.312500	1294.771362	-82.352997
197.128952	1290.220337	1353.934937	1240.158813	-78.571510
197.511139	1328.904175	1326.628662	1233.332275	4200.016113
197.893280	1331.179688	1335.730713	1201.474976	-2850.010742
198.275391	1310.699951	1312.975464	1335.730713	1100.005371
198.657471	1276.567139	1297.046875	1251.536499	-122.221497
199.039520	1244.709839	1349.383789	1224.230225	-19.565149
199.421539	1347.108276	1331.179688	1251.536499	600.001526
199.803513	1256.087524	1285.669312	1294.771362	130.769104
200.185471	1253.812012	1358.485962	1231.056763	-21.739170
200.567383	1335.730713	1272.016113	1274.291626	96.428589
200.949265	1283.393677	1287.944824	1231.056763	-1149.971802
201.331131	1326.628662	1335.730713	1274.291626	-575.002686
201.712967	1299.322388	1315.250977	1338.006226	242.857910
202.094742	1235.607788	1308.424438	1246.985352	15.624948
202.476517	1233.332275	1278.842651	1272.016113	85.000038
202.858231	1258.363037	1281.118164	1310.699951	230.000534
203.239944	1301.597900	1292.495850	1340.281738	-425.001343
203.621582	1256.087524	1328.904175	1240.158813	-21.875093
204.003235	1363.036987	1285.669312	1210.577026	197.058990
204.384827	1276.567139	1292.495850	1185.546387	-571.425720
204.766388	1281.118164	1274.291626	1210.577026	1033.336914
205.147934	1301.597900	1292.495850	1285.669312	175.000000
205.529449	1403.996338	1312.975464	1256.087524	162.499878
205.910904	1283.393677	1258.363037	1299.322388	-63.636852
206.292343	1210.577026	1322.077637	1217.403687	6.122531
206.673767	1308.424438	1281.118164	1278.842651	108.333298
207.055115	1242.434326	1372.139038	1292.495850	38.596535
207.436462	1328.904175	1326.628662	1260.638550	3000.010742
207.817780	1303.873413	1399.445313	1292.495850	-11.904716
208.199051	1251.536499	1328.904175	1281.118164	38.235172
208.580307	1242.434326	1390.343262	1267.465088	16.923090
208.961517	1267.465088	1306.148926	1258.363037	-23.529337
209.342712	1292.495850	1312.975464	1278.842651	-66.667259
209.723846	1242.434326	1221.954712	1301.597900	-288.890076
210.104965	1322.077637	1285.669312	1292.495850	81.250061
210.486069	1267.465088	1306.148926	1231.056763	-94.117668
210.867111	1281.118164	1226.505737	1244.709839	66.666740
211.248123	1301.597900	1299.322388	1276.567139	1100.005371
211.629120	1322.077637	1319.802124	1276.567139	2000.010742
212.010071	1274.291626	1338.006226	1306.148926	50.000000
212.390991	1262.914063	1283.393677	1185.546387	-377.778961
212.771881	1294.771362	1351.659302	1272.016113	-40.000130
213.152756	1319.802124	1374.414551	1274.291626	-83.333595
213.533569	1306.148926	1333.455200	1242.434326	-233.333191
213.914368	1226.505737	1369.863525	1285.669312	41.269871
214.295135	1267.465088	1317.526489	1269.740601	4.545444
214.675858	1249.260864	1365.312500	1249.260864	0.000000
215.056549	1322.077637	1328.904175	1224.230225	-1433.338745
215.437225	1285.669312	1299.322388	1165.066650	-883.336914
215.817841	1276.567139	1360.761475	1260.638550	-18.918837
216.198441	1358.485962	1340.281738	1246.985352	612.498596
216.579025	1353.934937	1385.792114	1228.781250	-392.858673
216.959549	1299.322388	1292.495850	1187.821899	1633.338745
217.340057	1278.842651	1344.832764	1233.332275	-68.965446
217.720535	1301.597900	1347.108276	1233.332275	-150.000137
218.100967	1294.771362	1301.597900	1326.628662	466.668457
218.481369	1317.526489	1335.730713	1299.322388	-99.999329
218.861740	1344.832764	1292.495850	1169.617676	334.782990
219.242065	1256.087524	1228.781250	1292.495850	-133.333191
219.622391	1256.087524	1303.873413	1231.056763	-52.381073
220.002670	1274.291626	1317.526489	1244.709839	-68.421143
220.382919	1344.832764	1228.781250	1297.046875	41.176445
220.763123	1308.424438	1322.077637	1283.393677	-183.332596
221.143295	1356.210449	1322.077637	1228.781250	373.333435
221.523453	1269.740601	1340.281738	1292.495850	32.258125
221.903549	1251.536499	1356.210449	1251.536499	0.000000
222.283630	1297.046875	1333.455200	1269.740601	-75.000084
222.663696	1317.526489	1319.802124	1231.056763	-3799.806885
223.043701	1206.026001	1333.455200	1224.230225	14.285755
223.423676	1224.230225	1378.965576	1217.403687	-4.411751
223.803635	1244.709839	1347.108276	1274.291626	28.888905
224.183548	1260.638550	1285.669312	1276.567139	63.636055
224.563431	1260.638550	1283.393677	1256.087524	-20.000000
224.943283	1322.077637	1335.730713	1274.291626	-350.001801
225.323105	1246.985352	1353.934937	1326.628662	74.468086
225.702881	1260.638550	1308.424438	1306.148926	95.238106
226.082642	1242.434326	1265.189575	1265.189575	100.000000
226.462357	1365.312500	1383.516602	1278.842651	-475.002014
226.842041	1219.679199	1369.863525	1251.536499	21.212133
227.221695	1319.802124	1315.250977	1201.474976	2599.940918
227.601318	1306.148926	1406.271851	1272.016113	-34.090908
227.980911	1276.567139	1463.159912	1287.944824	6.097602
228.360474	1287.944824	1383.516602	1297.046875	9.523786
228.739990	1283.393677	1440.404663	1240.158813	-27.536203
229.119476	1285.669312	1408.547363	1251.536499	-27.777794
229.498932	1283.393677	1424.476074	1299.322388	11.290360
229.878372	1299.322388	1504.119263	1196.923950	-50.000000
230.257736	1262.914063	1515.496826	1258.363037	-1.801796
230.637115	1174.168701	1572.384888	1319.802124	36.571445
231.016449	1242.434326	1454.057739	1276.567139	16.129034
231.395737	1267.465088	1542.803101	1260.638550	-2.479330
231.774994	1269.740601	1442.680176	1251.536499	-10.526278
232.154221	1276.567139	1476.812988	1221.954712	-27.272688
232.533417	1231.056763	1451.782227	1240.158813	4.123698
232.912582	1265.189575	1419.924927	1283.393677	11.764668
233.291702	1299.322388	1392.618774	1285.669312	-14.634089
233.670792	1276.567139	1447.231201	1262.914063	-7.999971
234.049866	1251.536499	1444.955688	1249.260864	-1.176530
234.428894	1349.383789	1417.649414	1244.709839	-153.333328
234.807892	1292.495850	1410.822876	1274.291626	-15.384671
235.186874	1308.424438	1444.955688	1260.638550	-34.999966
235.565781	1203.750488	1504.119263	1297.046875	31.060614
235.944687	1274.291626	1490.466064	1246.985352	-12.631593
236.323547	1333.455200	1501.843750	1206.026001	-75.675690
236.702377	1287.944824	1481.364014	1262.914063	-12.941198
237.081177	1283.393677	1501.843750	1340.281738	26.041677
237.459946	1269.740601	1515.496826	1226.505737	-17.592581
237.838669	1265.189575	1535.976563	1237.883301	-10.084043
238.217361	1206.026001	1565.558350	1276.567139	19.620247
238.596039	1244.709839	1515.496826	1278.842651	12.605042
238.974670	1299.322388	1561.007324	1333.455200	13.043476
239.353271	1297.046875	1488.190552	1326.628662	15.476205
239.731842	1244.709839	1533.701050	1281.118164	12.598419
240.110367	1308.424438	1488.190552	1278.842651	-16.455708
240.488876	1301.597900	1608.793213	1290.220337	-3.703691
240.867340	1356.210449	1590.588989	1281.118164	-32.038891
241.245789	1306.148926	1545.078613	1294.771362	-4.761888
241.624176	1303.873413	1508.670288	1262.914063	-19.999989
242.002548	1297.046875	1706.640625	1269.740601	-6.666673
242.380890	1351.659302	1758.977539	1240.158813	-27.374292
242.759186	1272.016113	1736.222412	1317.526489	9.803912
243.137451	1303.873413	1904.610962	1260.638550	-7.196964
243.515686	1274.291626	1966.049927	1292.495850	2.631587
243.893890	1274.291626	2011.560425	1319.802124	6.172850
244.272049	1210.577026	1981.978638	1226.505737	2.064905
244.650192	1331.179688	1843.171875	1294.771362	-7.111110
245.028290	1308.424438	1827.243164	1258.363037	-9.649113
245.406357	1190.097412	1699.814087	1319.802124	25.446432
245.784393	1272.016113	1692.987427	1303.873413	7.567570
246.162384	1308.424438	1756.702026	1274.291626	-7.614213
246.540359	1278.842651	1793.110352	1315.250977	7.079645
246.918289	1208.301514	1822.692139	1319.802124	18.148163
247.296204	1338.006226	2052.519775	1285.669312	-7.324831
247.674057	1294.771362	2245.938965	1435.853638	14.832536
248.051895	1338.006226	2393.847900	1312.975464	-2.370693
248.429703	1347.108276	2443.909424	1372.139038	2.282161
248.807465	1278.842651	2473.491211	1394.894287	9.714291
249.185196	1281.118164	2316.480225	1358.485962	7.472536
249.562897	1317.526489	2125.336426	1310.699951	-0.845067
249.940567	1358.485962	2098.030273	1342.557251	-2.153855
250.318192	1312.975464	1972.876587	1344.832764	4.827587
250.695801	1317.526489	1986.529663	1292.495850	-3.741483
251.073349	1324.353149	1859.100464	1253.812012	-13.191490
251.450882	1303.873413	1827.243164	1308.424438	0.869562
251.828400	1276.567139	1879.580200	1315.250977	6.415091
252.205872	1221.954712	1790.834839	1315.250977	16.399986
252.583313	1269.740601	1900.059814	1290.220337	3.249105
252.960693	1226.505737	1938.743774	1306.148926	11.182102
253.338074	1303.873413	2045.693237	1317.526489	1.840484
253.715408	1287.944824	2077.550537	1212.852539	-9.510099
254.092682	1319.802124	1945.570313	1340.281738	3.272716
254.469955	1258.363037	1806.763550	1258.363037	0.000000
254.847198	1231.056763	1779.457275	1306.148926	13.692942
255.224365	1283.393677	1854.549438	1328.904175	7.968141
255.601563	1215.128052	1768.079712	1283.393677	12.345676
255.978683	1338.006226	1834.069824	1292.495850	-9.174303
256.355743	1260.638550	1818.141113	1294.771362	6.122449
256.732819	1240.158813	1906.886475	1269.740601	4.436862
257.109894	1301.597900	1829.518677	1287.944824	-2.586198
257.486877	1267.465088	1920.539551	1328.904175	9.407669
257.863831	1276.567139	1934.192627	1310.699951	5.190312
258.240753	1326.628662	1943.294800	1306.148926	-3.321041
258.617645	1303.873413	2029.764526	1333.455200	4.075238
258.994507	1251.536499	2118.509766	1324.353149	8.398950
259.371307	1274.291626	2184.500000	1283.393677	0.999996
259.748108	1292.495850	2286.898438	1353.934937	6.178492
260.124878	1212.852539	2493.970703	1342.557251	10.124336
260.501617	1315.250977	2760.206787	1406.271851	6.299215
260.878296	1294.771362	2919.493164	1410.822876	7.142855
261.254944	1301.597900	3056.024414	1413.098389	6.355381
261.631561	1262.914063	2933.146240	1410.822876	8.855584
262.008179	1347.108276	2657.808350	1356.210449	0.694451
262.384735	1290.220337	2484.868652	1399.445313	9.142856
262.761261	1278.842651	2275.520752	1269.740601	-0.913239
263.137695	1281.118164	2311.929199	1317.526489	3.532008
263.514191	1206.026001	2141.265137	1326.628662	12.895382
263.890594	1219.679199	2107.132324	1344.832764	14.102555
264.267029	1265.189575	2141.265137	1324.353149	6.753250
264.643341	1251.536499	2145.816162	1333.455200	9.160300
265.019653	1333.455200	2111.683350	1374.414551	5.263155
265.395935	1312.975464	2152.642578	1308.424438	-0.542004
265.772217	1256.087524	2045.693237	1281.118164	3.170017
266.148407	1281.118164	2045.693237	1290.220337	1.190488
266.524597	1281.118164	2079.825928	1283.393677	0.284899
266.900726	1237.883301	2286.898438	1367.588013	12.364428
267.276855	1322.077637	2352.888428	1360.761475	3.752758
267.652924	1272.016113	2407.500977	1240.158813	-2.805612
268.028992	1351.659302	2346.062012	1358.485962	0.686509
268.404999	1303.873413	2430.256104	1388.067749	7.474754
268.781006	1335.730713	2416.603027	1317.526489	-1.684216
269.156921	1290.220337	2334.684326	1365.312500	7.189541
269.532837	1322.077637	2325.582275	1347.108276	2.494322
269.908661	1233.332275	2409.776611	1344.832764	9.477753
270.284546	1301.597900	2277.796387	1328.904175	2.797205
270.660339	1365.312500	2409.776611	1408.547363	4.139430
271.036133	1260.638550	2450.735840	1324.353149	5.353730
271.411835	1285.669312	2318.755615	1290.220337	0.440527
271.787537	1256.087524	2594.093750	1351.659302	7.142850
272.163239	1215.128052	2814.819336	1424.476074	13.086777
272.538849	1315.250977	2987.758789	1449.506714	8.027211
272.914459	1299.322388	2912.666504	1415.373901	7.193228
273.290070	1272.016113	2846.676514	1392.618774	7.658963
273.665588	1281.118164	2673.737061	1319.802124	2.777785
274.041046	1285.669312	2714.696289	1356.210449	4.936306
274.416565	1246.985352	2550.858887	1392.618774	11.169291
274.791962	1206.026001	2621.399902	1369.863525	11.575565
275.167389	1319.802124	2544.032227	1310.699951	-0.743502
275.542755	1283.393677	2498.521729	1369.863525	7.116110
275.918060	1244.709839	2523.552490	1297.046875	4.092531
276.293365	1281.118164	2459.837891	1335.730713	4.633209
276.668640	1317.526489	2584.991699	1315.250977	-0.179533
277.043854	1272.016113	2546.307861	1388.067749	9.107148
277.419037	1260.638550	2687.390137	1367.588013	7.496011
277.794189	1287.944824	2716.971924	1365.312500	5.414011
278.169312	1217.403687	2714.696289	1333.455200	7.750757
278.544373	1294.771362	2682.839111	1399.445313	7.540983
278.919464	1322.077637	2537.205811	1365.312500	3.558050
279.294464	1287.944824	2569.062988	1369.863525	6.394313
279.669464	1237.883301	2619.124512	1347.108276	7.907741
280.044403	1256.087524	2669.185791	1388.067749	9.339777
280.419312	1262.914063	2689.665527	1351.659302	6.220091
280.794189	1276.567139	2710.145264	1429.027100	10.634925
281.169037	1331.179688	2680.563477	1415.373901	6.239457
281.543854	1353.934937	2810.268311	1340.281738	-0.937505
281.918671	1228.781250	2851.227539	1369.863525	8.695651
282.293365	1312.975464	2924.044189	1381.241089	4.237288
282.668091	1358.485962	3056.024414	1356.210449	-0.134048
283.042786	1353.934937	3147.045166	1444.955688	5.076138
283.417419	1299.322388	3030.993652	1383.516602	4.862020
283.792053	1237.883301	3046.922363	1385.792114	8.176099
284.166595	1283.393677	2905.840088	1410.822876	7.854139
284.541138	1199.199463	2873.982666	1410.822876	12.635869
284.915619	1237.883301	2951.350586	1392.618774	9.030547
285.290100	1308.424438	3012.789551	1351.659302	2.536714
285.664520	1297.046875	3067.402100	1385.792114	5.012849
286.038940	1326.628662	3117.463379	1360.761475	1.905972
286.413300	1269.740601	3112.912354	1351.659302	4.444442
286.787628	1310.699951	3244.892578	1517.772339	10.705882
287.161896	1285.669312	3470.169189	1460.884399	8.020833
287.536194	1240.158813	3360.944336	1433.578125	9.120173
287.910400	1290.220337	3281.301025	1422.200562	6.628572
288.284607	1331.179688	3219.861816	1422.200562	4.819280
288.658752	1303.873413	3096.983887	1444.955688	7.868019
289.032867	1303.873413	2974.105713	1392.618774	5.313354
289.406921	1278.842651	2924.044189	1440.404663	9.820196
289.781006	1269.740601	3046.922363	1501.843750	13.060181
290.154999	1294.771362	3128.841064	1510.945801	11.786599
290.529022	1258.363037	3213.035400	1481.364014	11.408611
290.902954	1308.424438	3272.198975	1506.394775	10.081114
291.276825	1292.495850	3429.209961	1574.660400	13.205536
291.650757	1324.353149	3374.597412	1601.966675	13.540510
292.024597	1369.863525	3447.414063	1586.037964	10.405255
292.398407	1281.118164	3356.393066	1538.252075	12.390354
292.772156	1290.220337	3310.882813	1606.517700	15.653152
293.145905	1240.158813	3206.208740	1524.598877	14.467591
293.519592	1283.393677	3192.555664	1561.007324	14.541126
293.893280	1306.148926	3156.147461	1551.905151	13.284131
294.266907	1310.699951	3297.229736	1595.140137	14.318445
294.640533	1278.842651	3360.944336	1520.047852	11.584699
295.014069	1272.016113	3481.546875	1592.864502	14.521110
295.387604	1317.526489	3615.802490	1608.793213	12.673271
295.761078	1267.465088	3572.567627	1720.293701	19.644619
296.134552	1235.607788	3590.771729	1613.344238	16.038647
296.507996	1251.536499	3593.047363	1624.721802	15.937800
296.881378	1178.719727	3572.567627	1615.619751	18.250952
297.254730	1285.669312	3875.211914	1615.619751	12.741650
297.628021	1262.914063	4068.631104	1638.375000	13.381996
298.001282	1274.291626	4027.671875	1690.711914	15.123965
298.374573	1310.699951	4068.631104	1672.507813	13.118814
298.747803	1253.812012	3993.539063	1658.854614	14.784049
299.121002	1269.740601	3795.568604	1704.365112	17.207209
299.494141	1228.781250	3702.272461	1640.650513	16.651333
299.867188	1221.954712	3645.384277	1592.864502	15.305160
300.240265	1253.812012	3538.434814	1529.150024	12.051793
300.613312	1278.842651	3424.658691	1597.415649	14.846241
300.986328	1283.393677	3401.903564	1642.926025	16.971003
301.359314	1251.536499	3310.882813	1556.456177	14.806625
301.732239	1256.087524	3333.637939	1579.211426	15.553121
302.105103	1253.812012	3413.281250	1626.997314	17.281343
302.477997	1258.363037	3401.903564	1615.619751	16.666664
302.850830	1285.669312	3408.730225	1576.935913	13.719182
303.223602	1285.669312	3272.198975	1613.344238	16.494843
303.596375	1256.087524	3315.433838	1631.548462	18.232046
303.969116	1287.944824	3224.413086	1617.895264	17.038773
304.341766	1294.771362	3283.576416	1604.242188	15.560641
304.714478	1349.383789	3294.954102	1601.966675	12.982460
305.087067	1347.108276	3035.544678	1561.007324	12.668469
305.459656	1246.985352	3192.555664	1549.629639	15.555556
305.832214	1294.771362	3224.413086	1572.384888	14.386791
306.204681	1340.281738	3235.790527	1640.650513	15.846340
306.577148	1303.873413	3233.515137	1545.078613	12.499999
306.949646	1347.108276	3326.811523	1606.517700	13.103450
307.322021	1281.118164	3231.239502	1588.313477	15.752625
307.694397	1287.944824	3162.973877	1572.384888	15.169902
308.066742	1262.914063	3251.719238	1535.976563	13.729978
308.439026	1351.659302	3285.852051	1556.456177	10.588235
308.811279	1310.699951	3404.179199	1615.619751	14.565217
309.183502	1253.812012	3606.700439	1606.517700	14.990328
309.555695	1235.607788	3622.629150	1556.456177	13.441370
309.927887	1215.128052	3608.976074	1633.823975	17.490496
310.299988	1237.883301	3547.536865	1645.201538	17.635469
310.672058	1333.455200	3574.843262	1545.078613	9.441623
311.044128	1219.679199	3684.068115	1661.130127	17.913200
311.416168	1272.016113	3693.170166	1652.028076	15.695489
311.788147	1253.812012	3618.078125	1592.864502	14.340708
312.160065	1187.821899	3715.925537	1629.272949	17.461748
312.531982	1328.904175	3595.322754	1649.752563	14.156626
312.903870	1315.250977	3613.527100	1570.109375	11.089111
313.275696	1301.597900	3449.689453	1604.242188	14.088984
313.647491	1276.567139	3413.281250	1608.793213	15.548457
314.019318	1342.557251	3360.944336	1576.935913	11.612176
314.391022	1328.904175	3397.352539	1595.140137	12.871289
314.762726	1328.904175	3574.843262	1517.772339	8.409319
315.134369	1260.638550	3502.026611	1561.007324	13.401015
315.505981	1267.465088	3606.700439	1586.037964	13.618675
315.877594	1249.260864	3718.200928	1667.956787	16.958530
316.249146	1315.250977	3611.251465	1606.517700	12.685830
316.620636	1267.465088	3583.945313	1567.833862	12.966602
316.992157	1276.567139	3338.188965	1563.282837	13.907289
317.363586	1240.158813	3388.250488	1576.935913	15.677966
317.735016	1283.393677	3301.780762	1504.119263	10.935741
318.106354	1274.291626	3269.923340	1554.180664	14.025084
318.477722	1258.363037	3306.331787	1499.568237	11.777778
318.849060	1251.536499	3433.760986	1599.691162	15.954117
319.220306	1251.536499	3372.321777	1599.691162	16.416309
319.591522	1276.567139	3456.516113	1601.966675	14.926933
319.962738	1283.393677	3424.658691	1622.446289	15.834219
320.333923	1258.363037	3533.883789	1638.375000	16.700001
320.705017	1274.291626	3413.281250	1592.864502	14.893614
321.076111	1297.046875	3406.454590	1658.854614	17.152102
321.447144	1328.904175	3422.383301	1558.731689	10.978257
321.818176	1219.679199	3299.505127	1579.211426	17.286650
322.189178	1297.046875	3299.505127	1472.261963	8.750000
322.560120	1317.526489	3258.545898	1492.741699	9.026968
322.931030	1262.914063	3363.219727	1526.874512	12.567716
323.301910	1262.914063	3574.843262	1549.629639	12.401572
323.672729	1317.526489	3704.547852	1567.833862	10.486180
324.043549	1317.526489	3772.813477	1604.242188	11.677482
324.414337	1269.740601	4011.743164	1663.405762	14.356850
324.785095	1358.485962	4080.008789	1624.721802	9.782605
325.155792	1287.944824	4116.416992	1613.344238	11.504423
325.526428	1285.669312	4168.753906	1654.303589	12.786107
325.897034	1208.301514	4041.324951	1592.864502	13.574296
326.267670	1262.914063	4018.569824	1638.375000	13.625103
326.638184	1283.393677	3891.140625	1629.272949	13.263529
327.008728	1287.944824	4011.743164	1636.099487	12.781955
327.379211	1299.322388	4027.671875	1590.588989	10.675560
327.749634	1319.802124	3893.416016	1565.558350	9.549071
328.120026	1228.781250	3791.017578	1595.140137	14.298404
328.490417	1219.679199	3806.946289	1581.486938	13.984166
328.860748	1228.781250	3725.027588	1526.874512	11.941661
329.231079	1260.638550	3797.844238	1554.180664	11.569505
329.601318	1274.291626	3649.935303	1570.109375	12.452110
329.971558	1256.087524	3777.364502	1570.109375	12.454874
330.341736	1244.709839	3781.915527	1586.037964	13.452915
330.711914	1303.873413	3841.079102	1588.313477	11.210761
331.082062	1285.669312	3784.191162	1606.517700	12.841528
331.452148	1246.985352	3802.395264	1636.099487	15.227073
331.822174	1285.669312	3747.782715	1558.731689	11.090569
332.192200	1262.914063	3845.630127	1604.242188	13.215859
332.562134	1292.495850	3918.446777	1592.864502	11.438472
332.932129	1237.883301	3993.539063	1645.201538	14.781173
333.302063	1319.802124	4080.008789	1663.405762	12.448476
333.671906	1312.975464	4284.805664	1690.711914	12.710567
334.041718	1194.648438	4214.264648	1718.018188	17.332327
334.411499	1249.260864	4264.326172	1652.028076	13.358490
334.781281	1324.353149	4218.815430	1663.405762	11.713838
335.151001	1274.291626	4293.907715	1747.599976	15.674454
335.520721	1290.220337	4091.386475	1686.160889	14.134848
335.890350	1312.975464	4039.049316	1654.303589	12.520869
336.259979	1233.332275	4018.569824	1663.405762	15.441178
336.629547	1319.802124	4045.875977	1672.507813	12.938230
336.999084	1272.016113	4070.906738	1606.517700	11.951221
337.368622	1340.281738	4098.212891	1690.711914	12.706270
337.738098	1281.118164	4164.203125	1674.783325	13.654304
338.107513	1260.638550	4150.549805	1645.201538	13.307087
338.476898	1260.638550	4248.397461	1601.966675	11.424219
338.846252	1328.904175	4282.530273	1631.548462	10.246534
339.215576	1285.669312	4243.846191	1695.262939	13.846151
339.584869	1269.740601	4230.193359	1617.895264	11.760183
339.954132	1240.158813	4298.458984	1702.089600	15.104167
340.323334	1283.393677	4157.376465	1540.527588	8.946954
340.692505	1287.944824	4098.212891	1663.405762	13.360325
341.061646	1281.118164	3970.783691	1586.037964	11.336719
341.430786	1299.322388	4100.488281	1642.926025	12.266450
341.799896	1310.699951	4221.091309	1520.047852	7.193119
342.168915	1292.495850	4248.397461	1695.262939	13.625862
342.537903	1278.842651	4382.652832	1738.497925	14.809388
342.906830	1272.016113	4243.846191	1622.446289	11.791730
343.275757	1276.567139	4373.550781	1731.671387	14.695081
343.644684	1274.291626	4371.275391	1629.272949	11.462162
344.013550	1333.455200	4487.327148	1681.609863	11.038960
344.382355	1231.056763	4564.694824	1749.875488	15.563138
344.751129	1274.291626	4824.104004	1697.538574	11.923079
345.119873	1333.455200	4976.563965	1713.467163	10.430980
345.488586	1324.353149	5072.135742	1731.671387	10.868246
345.857269	1206.026001	5229.146973	1770.355225	14.027150
346.225891	1237.883301	5342.922852	1779.457275	13.192905
346.594482	1265.189575	5445.321289	1772.630737	12.139358
346.963043	1340.281738	5197.289551	1749.875488	10.619469
347.331543	1228.781250	5001.594727	1674.783325	11.821471
347.700043	1342.557251	4997.043457	1752.151001	11.207971
348.068512	1281.118164	4956.084473	1702.089600	11.455110
348.436951	1283.393677	4621.582520	1740.773438	13.701434
348.805328	1285.669312	4580.623535	1733.946899	13.604972
349.173645	1342.557251	4664.817871	1713.467163	11.164383
349.541931	1308.424438	4623.858398	1811.314575	15.168154
349.910217	1310.699951	4710.328125	1711.191650	11.780456
350.278473	1290.220337	4855.961426	1697.538574	11.423101
350.646667	1353.934937	4819.553223	1690.711914	9.717660
351.014801	1253.812012	4912.849609	1770.355225	14.116915
351.382935	1267.465088	4933.329102	1715.742676	12.228429
351.751007	1306.148926	5006.145996	1697.538574	10.578107
352.119049	1249.260864	5049.380859	1834.069824	15.389223
352.487091	1265.189575	5012.972168	1724.844727	12.264723
352.855072	1328.904175	5247.351074	1695.262939	9.349591
353.222992	1258.363037	5035.727539	1733.946899	12.590362
353.590881	1369.863525	5222.320313	1765.804199	10.277615
353.958740	1228.781250	5313.341309	1720.293701	12.033424
354.326599	1242.434326	5397.535156	1749.875488	12.212488
354.694397	1219.679199	5659.220215	1806.763550	13.223988
355.062134	1367.588013	5654.669434	1818.141113	10.509553
355.429840	1317.526489	5602.332031	1838.620850	12.161447
355.797516	1244.709839	5811.680176	1840.896362	13.054312
356.165192	1283.393677	6075.640625	1865.927002	12.155745
356.532776	1267.465088	6018.752441	1802.212524	11.254791
356.900360	1256.087524	6332.774414	1875.029175	12.191842
357.267883	1267.465088	6330.499023	1877.304688	12.044944
357.635376	1347.108276	6717.337402	2072.999512	13.516952
358.002808	1203.750488	6853.868652	1936.468262	12.968185
358.370270	1240.158813	7115.553711	1947.845825	12.044927
358.737640	1274.291626	7265.737793	1952.396851	11.317888
359.105011	1342.557251	7115.553711	1993.356201	11.273157
359.472321	1349.383789	6710.510742	1897.784302	10.229202
359.839569	1356.210449	6851.593262	1884.131226	9.606625
360.206787	1360.761475	6699.133301	1879.580200	9.718669
360.574005	1308.424438	7049.563477	1981.978638	11.732065
360.941193	1310.699951	7283.941895	2004.733887	11.619049
361.308319	1240.158813	7645.750000	2011.560425	12.042629
361.675415	1256.087524	8219.180664	2143.540527	12.745097
362.042450	1292.495850	8628.774414	2168.571289	11.941688
362.409424	1233.332275	9168.073242	2207.255127	12.274160
362.776428	1228.781250	9295.502930	2236.836914	12.496472
363.143402	1260.638550	8913.214844	2216.357178	12.488849
363.510284	1344.832764	8376.192383	2118.509766	11.003235
363.877136	1208.301514	7704.913574	2129.887451	14.185638
364.243988	1328.904175	7131.482422	1968.325439	11.019607
364.610779	1310.699951	6892.552734	2007.009399	12.474523
364.977539	1328.904175	6665.000488	1963.774414	11.897654
365.344269	1269.740601	6528.469238	1790.834839	9.909130
365.710938	1326.628662	6578.530762	1927.366089	11.438473
366.077576	1287.944824	6403.315430	1870.478149	11.387900
366.444183	1319.802124	6153.008301	1890.957764	11.817325
366.810760	1287.944824	6303.192383	1904.610962	12.295827
367.177277	1281.118164	6419.244141	1893.233276	11.913198
367.543823	1276.567139	6364.631836	1945.570313	13.148480
367.910248	1258.363037	6271.335449	1984.254150	14.480253
368.276642	1322.077637	6284.988281	1909.161987	11.829436
368.643036	1242.434326	6178.039063	1927.366089	13.877363
369.009399	1242.434326	6127.977539	1806.763550	11.551003
369.375671	1221.954712	6089.293457	1763.528564	11.126693
369.741974	1287.944824	5966.415527	1856.824951	12.159532
370.108215	1319.802124	5959.588867	1802.212524	10.397254
370.474396	1312.975464	6032.405762	1802.212524	10.366444
370.840546	1312.975464	6091.569336	1950.121338	13.333334
371.206665	1299.322388	6073.365234	1856.824951	11.677787
371.572784	1265.189575	6339.601074	1952.396851	13.542600
371.938843	1226.505737	6264.508789	1799.937012	11.382114
372.304840	1272.016113	6523.917969	1902.335449	12.001735
372.670807	1299.322388	6441.999512	1836.345337	10.442478
373.036713	1285.669312	6323.672363	1904.610962	12.285457
373.402649	1256.087524	6344.151855	1806.763550	10.822898
373.768524	1260.638550	6467.030273	1945.570313	13.155595
374.134308	1308.424438	6264.508789	1995.631714	13.865932
374.500122	1276.567139	6391.937988	1902.335449	12.233097
374.865875	1231.056763	6519.367188	1929.641602	13.209981
375.231567	1274.291626	6398.764648	1922.815063	12.655416
375.597260	1226.505737	6503.438477	1890.957764	12.591634
375.962891	1233.332275	6881.174805	1925.090576	12.248186
376.328461	1267.465088	6835.664551	1988.805176	12.954638
376.694031	1267.465088	7024.532715	1947.845825	11.818183
377.059540	1331.179688	7365.860840	2002.458252	11.123679
377.425049	1258.363037	7643.474609	2093.479248	13.079118
377.790497	1249.260864	7782.281250	2161.744873	13.967260
378.155945	1333.455200	8084.925293	2091.203613	11.223458
378.521301	1256.087524	7834.618164	2107.132324	12.936700
378.886597	1369.863525	7973.424805	2061.621826	10.475533
379.251892	1312.975464	7497.840820	2082.101563	12.435616
379.617157	1272.016113	7274.839844	1991.080688	11.978772
379.982422	1196.923950	7056.390137	1954.672363	12.932038
380.347595	1310.699951	7033.634766	1922.815063	10.695826
380.712738	1251.536499	6947.165039	1927.366089	11.865760
381.077820	1260.638550	7042.736816	1927.366089	11.530892
381.442902	1278.842651	7097.349609	1984.254150	12.123583
381.807953	1294.771362	7015.430664	1938.743774	11.256962
382.172974	1267.465088	6938.062988	2002.458252	12.961476
382.537933	1285.669312	6992.675293	1909.161987	10.925040
382.902832	1256.087524	7010.879395	1884.131226	10.913404
383.267700	1242.434326	7088.247070	2011.560425	13.156873
383.632538	1292.495850	7179.268066	1979.703125	11.673753
383.997345	1246.985352	7404.544922	2052.519775	13.082040
384.362152	1292.495850	7582.035156	2093.479248	12.735168
384.726898	1246.985352	7554.729004	1961.498901	11.327561
385.091553	1233.332275	7577.484375	2084.376953	13.414632
385.456238	1315.250977	7559.280273	2084.376953	12.317783
385.820862	1269.740601	7618.443848	2032.040039	12.007168
386.185425	1219.679199	7611.617188	2061.621826	13.171947
386.549988	1258.363037	7609.341797	2093.479248	13.149410
386.914490	1244.709839	7729.944336	2113.958740	13.403508
387.278961	1262.914063	7950.669922	1936.468262	10.071453
387.643372	1258.363037	8057.619141	2077.550537	12.048194
388.007782	1258.363037	8046.241699	2093.479248	12.303051
388.372101	1281.118164	8032.588379	2091.203613	11.998652
388.736450	1240.158813	8005.282227	2084.376953	12.478976
389.100739	1278.842651	8003.006836	2052.519775	11.505922
389.464966	1274.291626	7727.668457	2013.835938	11.459804
389.829163	1317.526489	7907.434570	1929.641602	9.288674
390.193329	1244.709839	7805.036133	1934.192627	10.509886
390.557495	1315.250977	8098.578613	2025.213501	10.466287
390.921570	1210.577026	8264.691406	2098.030273	12.580647
391.285614	1303.873413	8280.620117	2086.652588	11.219831
391.649597	1235.607788	8396.671875	2189.051025	13.314268
392.013550	1285.669312	8967.827148	2143.540527	11.167061
392.377502	1276.567139	9249.992188	2102.581299	10.359591
392.741455	1242.434326	9149.869141	2077.550537	10.561152
393.105316	1253.812012	9036.092773	2018.386963	9.824561
393.469086	1365.312500	8885.909180	2075.274902	9.440240
393.832886	1338.006226	8874.531250	2052.519775	9.480677
394.196655	1353.934937	8958.725586	2018.386963	8.737283
394.560333	1322.077637	9031.541992	2088.927979	9.946869
394.924042	1328.904175	9197.655273	2150.367188	10.439561
395.287659	1287.944824	9407.002930	2109.407715	10.117712
395.651245	1262.914063	9036.092773	2102.581299	10.802109
396.014771	1260.638550	9033.817383	2054.795166	10.216626
396.378296	1353.934937	8526.375977	2109.407715	10.532994
396.741791	1326.628662	8355.711914	1981.978638	9.323406
397.105255	1219.679199	8346.610352	1972.876587	10.568327
397.468628	1206.026001	8305.651367	1941.019287	10.352564
397.832001	1231.056763	8194.150391	1934.192627	10.098038
398.195313	1258.363037	8294.273438	1950.121338	9.831824
398.558624	1281.118164	8251.038086	1922.815063	9.206661
398.921844	1292.495850	8223.732422	1904.610962	8.831254
399.285095	1274.291626	8194.150391	1897.784302	9.010194
399.648254	1297.046875	8173.670898	2054.795166	11.019191
400.011383	1319.802124	8328.406250	1988.805176	9.545454
400.374451	1308.424438	8246.487305	2038.866699	10.528043
400.737549	1335.730713	8380.743164	1970.601074	9.011628
401.100586	1287.944824	8251.038086	1777.181763	7.026144
401.463562	1297.046875	8244.211914	1909.161987	8.811006
401.826508	1351.659302	8576.437500	2027.489014	9.354331
402.189392	1301.597900	8114.507324	1934.192627	9.285236
402.552246	1306.148926	8376.192383	1922.815063	8.722239
402.915070	1292.495850	8483.141602	1877.304688	8.132912
403.277893	1256.087524	8708.417969	1911.437500	8.793893
403.640656	1260.638550	8822.194336	1938.743774	8.967800
404.003326	1276.567139	9006.511719	1975.152100	9.037387
404.366028	1210.577026	8897.286133	1911.437500	9.117823
404.728699	1240.158813	9309.155273	2054.795166	10.095881
405.091248	1269.740601	9766.535156	2077.550537	9.507231
405.453857	1285.669312	9766.535156	1936.468262	7.673732
405.816345	1206.026001	9443.411133	2027.489014	9.972377
406.178833	1301.597900	9541.258789	1941.019287	7.760287
406.541260	1265.189575	9768.810547	2007.009399	8.723576
406.903687	1228.781250	9393.349609	1979.703125	9.197325
407.266052	1356.210449	9275.022461	2027.489014	8.477011
407.628387	1246.985352	9156.695313	1865.927002	7.825087
407.990662	1287.944824	9077.052734	1970.601074	8.764242
408.352905	1224.230225	9083.878906	1929.641602	8.975101
408.715118	1224.230225	9193.104492	1902.335449	8.509423
409.077332	1283.393677	9127.114258	1870.478149	7.484770
409.439484	1258.363037	9074.777344	1822.692139	7.219795
409.801575	1301.597900	9106.633789	1902.335449	7.696794
410.163605	1385.792114	9366.043945	1758.977539	4.676362
410.525635	1333.455200	9545.809570	1863.651489	6.456081
410.887604	1338.006226	9511.676758	1868.202637	6.486638
411.249573	1276.567139	9659.585938	1818.141113	6.460370
411.611481	1260.638550	9418.380859	1931.917114	8.228730
411.973328	1353.934937	9493.472656	1856.824951	6.178361
412.335144	1344.832764	9618.625977	1931.917114	7.095710
412.696930	1342.557251	9498.023438	1795.385864	5.552455
413.058685	1246.985352	9384.248047	1881.855713	7.802014
413.420410	1285.669312	9286.400391	1845.447388	6.996587
413.782104	1319.802124	9513.952148	1875.029175	6.775895
414.143707	1287.944824	9407.002930	1852.273926	6.950672
414.505310	1322.077637	9573.116211	1761.253052	5.322668
414.866852	1292.495850	9689.167969	1704.365112	4.905149
415.228394	1251.536499	9773.362305	1765.804199	6.034712
415.589874	1249.260864	9777.913086	1758.977539	5.976521
415.951324	1285.669312	9889.413086	1809.039063	6.083046
416.312683	1333.455200	10260.323242	1756.702026	4.741269
416.674072	1324.353149	10328.588867	1784.008301	5.104877
417.035370	1253.812012	11052.204102	1861.375977	6.200649
417.396667	1297.046875	10813.274414	1822.692139	5.523673
417.757935	1294.771362	11095.439453	1758.977539	4.736475
418.119141	1272.016113	11559.645508	1788.559326	5.021013
418.480286	1253.812012	11718.931641	1811.314575	5.327245
418.841400	1258.363037	12208.168945	1936.468262	6.192852
419.202484	1260.638550	12606.384766	1918.264038	5.796229
419.563568	1228.781250	12988.672852	1900.059814	5.708204
419.924591	1276.567139	13789.656250	1972.876587	5.564649
420.285553	1324.353149	13853.371094	1875.029175	4.395205
420.646484	1312.975464	14815.916016	2041.142212	5.392653
421.007355	1253.812012	15261.917969	1934.192627	4.857049
421.368225	1301.597900	15935.472656	2027.489014	4.960348
421.729065	1292.495850	16342.790039	1979.703125	4.566072
422.089874	1338.006226	16998.140625	2107.132324	4.911363
422.450592	1351.659302	16809.271484	2009.284912	4.254380
422.811279	1308.424438	16652.261719	2018.386963	4.627021
423.171936	1251.536499	16627.230469	2072.999512	5.342607
423.532593	1226.505737	16358.718750	2043.417725	5.398497
423.893127	1292.495850	16511.179688	2007.009399	4.694976
424.253723	1285.669312	16727.353516	2077.550537	5.128205
424.614197	1244.709839	16938.976563	2218.632813	6.205597
424.974670	1249.260864	17539.714844	2120.785400	5.349909
425.335052	1249.260864	17573.847656	2159.469238	5.575690
425.695496	1253.812012	16836.578125	2098.030273	5.417641
426.055817	1272.016113	16977.660156	2109.407715	5.331788
426.416168	1260.638550	16941.251953	2032.040039	4.919460
426.776398	1292.495850	15944.574219	2043.417725	5.125020
427.136627	1242.434326	15578.215820	2052.519775	5.650794
427.496826	1231.056763	15316.530273	2000.182739	5.460420
427.856995	1240.158813	14397.219727	1959.223389	5.465237
428.217102	1278.842651	14128.708984	1986.529663	5.507349
428.577179	1342.557251	13748.696289	2009.284912	5.374176
428.937195	1249.260864	13798.757813	1941.019287	5.512240
429.297180	1306.148926	13015.978516	1904.610962	5.110766
429.657135	1276.567139	13202.571289	1795.385864	4.350315
430.017059	1244.709839	13459.705078	2034.315552	6.464233
430.376984	1290.220337	13125.204102	1881.855713	4.999039
430.736786	1301.597900	12738.365234	1920.539551	5.411858
431.096588	1303.873413	12840.763672	1972.876587	5.798817
431.456360	1269.740601	12868.070313	1838.620850	4.904846
431.816071	1317.526489	12310.567383	1868.202637	5.009316
432.175781	1292.495850	12574.528320	1902.335449	5.405406
432.535400	1237.883301	12526.742188	1870.478149	5.603709
432.895020	1244.709839	12467.578125	1890.957764	5.758314
433.254578	1274.291626	12886.274414	1900.059814	5.388987
433.614105	1274.291626	12972.744141	1888.682251	5.251897
433.973602	1299.322388	13484.736328	1909.161987	5.004669
434.333038	1290.220337	13334.551758	1847.722900	4.628755
434.692444	1265.189575	13402.817383	1991.080688	5.980502
435.051819	1258.363037	13680.430664	1947.845825	5.550467
435.411133	1367.588013	13744.145508	1943.294800	4.651590
435.770416	1185.546387	13036.458984	1909.161987	6.105991
436.129669	1294.771362	13498.389648	1843.171875	4.493753
436.488861	1306.148926	13343.654297	1872.753662	4.706995
436.848083	1374.414551	13430.124023	1811.314575	3.624009
437.207184	1292.495850	13327.725586	1824.967651	4.424276
437.566254	1310.699951	13689.533203	1854.549438	4.393383
437.925293	1210.577026	13669.053711	1843.171875	5.077626
438.284363	1240.158813	13805.584961	1884.131226	5.124955
438.643311	1274.291626	13839.717773	1859.100464	4.654111
439.002258	1294.771362	13780.553711	1843.171875	4.392200
439.361145	1256.087524	14121.881836	1875.029175	4.810754
439.719971	1237.883301	14793.161133	1822.692139	4.314252
440.078827	1335.730713	14836.395508	1854.549438	3.842912
440.437592	1342.557251	15271.020508	1972.876587	4.525405
440.796295	1297.046875	15534.980469	1913.713013	4.331149
441.155029	1269.740601	16704.597656	1943.294800	4.363851
441.513672	1278.842651	16843.404297	1902.335449	4.005849
441.872253	1294.771362	17109.640625	1906.886475	3.870504
442.230865	1285.669312	16367.821289	1927.366089	4.254676
442.589386	1278.842651	16693.220703	1827.243164	3.557721
442.947876	1272.016113	16247.218750	1802.212524	3.540496
443.306335	1287.944824	15862.655273	1829.518677	3.715846
443.664764	1326.628662	15341.561523	1815.865601	3.490826
444.023102	1269.740601	15691.991211	1861.375977	4.102240
444.381500	1349.383789	15478.092773	1793.110352	3.140602
444.739777	1315.250977	15546.358398	1765.804199	3.165974
445.098022	1335.730713	15846.726563	1795.385864	3.167633
445.456238	1349.383789	15785.288086	1849.998413	3.467844
445.814423	1315.250977	16274.524414	1845.447388	3.544266
446.172577	1265.189575	17212.039063	1881.855713	3.867009
446.530701	1224.230225	17107.365234	1931.917114	4.455587
446.888733	1342.557251	17496.478516	1902.335449	3.465278
447.246765	1308.424438	18634.240234	1938.743774	3.638035
447.604736	1290.220337	17553.367188	2041.142212	4.617322
447.962677	1278.842651	18151.830078	1920.539551	3.803102
448.320587	1340.281738	18422.617188	1997.907227	3.849740
448.678436	1287.944824	17908.349609	2034.315552	4.490689
449.036255	1212.852539	17922.001953	1952.396851	4.425984
449.394043	1292.495850	16818.375000	1963.774414	4.323611
449.751770	1217.403687	17027.722656	1895.508789	4.289003
450.109467	1262.914063	16401.953125	1952.396851	4.554337
450.467163	1237.883301	16558.964844	1890.957764	4.262587
450.824768	1306.148926	16185.779297	1981.978638	4.541979
451.182343	1285.669312	15805.767578	1986.529663	4.826829
451.539886	1224.230225	15603.246094	2009.284912	5.459725
451.897369	1303.873413	15546.358398	1972.876587	4.697236
452.254822	1233.332275	15243.713867	2047.968750	5.814520
452.612274	1253.812012	15794.389648	2191.326416	6.447573
452.969635	1308.424438	15528.154297	2061.621826	5.296847
453.326965	1206.026001	15880.859375	2134.438477	6.326562
453.684326	1201.474976	15423.480469	2109.407715	6.383999
454.041534	1251.536499	15182.274414	2145.816162	6.419471
454.398773	1265.189575	14847.773438	2191.326416	6.818562
454.755951	1294.771362	14483.689453	2145.816162	6.452726
455.113098	1240.158813	13912.534180	2145.816162	7.146706
455.470215	1292.495850	14194.699219	2305.102539	7.848324
455.827240	1208.301514	14096.851563	2366.541748	8.986583
456.184265	1287.944824	14153.739258	2291.449463	7.799788
456.541260	1276.567139	13696.359375	2327.857666	8.464639
456.898193	1349.383789	13985.350586	2371.092773	8.085721
457.255096	1303.873413	14110.504883	2427.980713	8.777540
457.611969	1215.128052	13864.748047	2521.277100	10.325599
457.968781	1215.128052	13905.708008	2473.491211	9.915726
458.325531	1199.199463	14112.780273	2571.338623	10.625551
458.682312	1246.985352	15052.570313	2698.767578	10.515905
459.039001	1276.567139	15748.879883	2869.431641	11.006289
459.395630	1237.883301	16463.392578	3028.718262	11.762069
459.752289	1260.638550	17605.705078	3140.218750	11.499373
460.108856	1285.669312	18859.515625	3438.312012	12.249126
460.465363	1249.260864	19401.089844	3561.189941	12.736619
460.821899	1262.914063	19448.876953	3649.935303	13.125625
461.178345	1231.056763	19037.007813	3661.312988	13.648562
461.534760	1246.985352	18900.476563	3574.843262	13.186388
461.891144	1287.944824	17892.419922	3568.016602	13.731670
462.247467	1285.669312	17127.845703	3613.527100	14.694054
462.603760	1283.393677	16927.599609	3720.476563	15.578183
462.960052	1353.934937	16128.891602	3445.138428	14.153704
463.316254	1267.465088	15466.714844	3565.741211	16.185898
463.672424	1315.250977	15339.286133	3554.363525	15.966250
464.028564	1272.016113	15002.508789	3524.781738	16.407028
464.384644	1226.505737	14688.486328	3624.904541	17.816093
464.740723	1322.077637	15127.662109	3684.068115	17.108950
465.096741	1274.291626	14777.232422	3777.364502	18.537243
465.452698	1283.393677	14438.179688	3715.925537	18.491610
465.808655	1180.995239	14754.476563	3882.038574	19.899416
466.164520	1301.597900	14836.395508	3745.507324	18.056490
466.520355	1356.210449	15475.817383	4084.559814	19.323124
466.876190	1287.944824	15691.991211	4136.896973	19.778831
467.231964	1233.332275	15487.194336	4175.580566	20.641762
467.587677	1231.056763	16151.646484	4343.969238	20.863201
467.943390	1290.220337	16240.391602	4403.132813	20.821920
468.299011	1306.148926	15696.542969	4328.040527	20.999367
468.654633	1249.260864	15305.153320	4230.193359	21.207708
469.010223	1278.842651	15448.510742	4428.163574	22.225792
469.365723	1244.709839	14993.406250	4346.244629	22.558754
469.721191	1235.607788	15309.704102	4437.265625	22.748585
470.076660	1299.322388	14831.844727	4366.724609	22.666893
470.432068	1301.597900	14886.457031	4437.265625	23.082077
470.787445	1322.077637	14642.976563	4382.652832	22.975742
471.142792	1278.842651	14656.629883	4548.766113	24.442932
471.498016	1256.087524	15052.570313	4605.654297	24.278412
471.853271	1237.883301	15027.539063	4562.419434	24.108912
472.208496	1283.393677	14790.884766	4719.430176	25.438007
472.563660	1281.118164	15268.744141	4692.124023	24.385881
472.918762	1328.904175	15300.601563	4801.349121	24.853422
473.273865	1301.597900	15560.011719	4901.471680	25.247364
473.628876	1319.802124	16040.146484	5176.810059	26.201885
473.983917	1340.281738	15919.543945	5008.421387	25.159983
474.338837	1262.914063	16169.850586	5151.779297	26.087622
474.693787	1324.353149	15935.472656	5169.983398	26.319889
475.048645	1322.077637	16106.136719	5192.738281	26.181313
475.403503	1299.322388	16192.606445	5185.912109	26.096258
475.758270	1228.781250	16310.933594	5281.483887	26.870852
476.113037	1315.250977	16115.238281	5383.882324	27.490776
476.467773	1260.638550	16545.312500	5445.321289	27.378292
476.822418	1283.393677	17400.908203	5823.057617	28.166031
477.177063	1376.690063	16936.701172	5766.169922	28.210007
477.531647	1310.699951	17639.837891	5836.710938	27.717390
477.886200	1258.363037	18115.421875	6005.099609	28.158747
478.240723	1292.495850	18581.902344	6157.559082	28.138985
478.595184	1292.495850	18836.761719	6244.029297	28.223085
478.949585	1265.189575	18834.486328	6428.346191	29.387384
479.303986	1285.669312	19052.935547	6480.683105	29.239241
479.658325	1226.505737	19075.691406	6526.193848	29.691484
480.012634	1274.291626	19164.435547	6544.397949	29.458155
480.366913	1267.465088	19801.582031	6874.348145	30.251686
480.721130	1292.495850	20309.023438	6885.726074	29.412470
481.075317	1281.118164	20577.535156	7149.686523	30.412735
481.429474	1201.474976	21674.335938	7579.759766	31.154827
481.783569	1274.291626	22630.054688	7877.853027	30.921682
482.137604	1265.189575	23783.744141	8180.497070	30.709375
482.491669	1240.158813	26095.671875	8908.664063	30.852331
482.845612	1294.771362	28352.988281	9620.902344	30.771173
483.199554	1342.557251	31784.474609	10735.907227	30.856628
483.553436	1312.975464	37136.500000	12583.629883	31.461601
483.907318	1310.699951	43430.589844	14909.211914	32.285248
484.261139	1297.046875	49599.527344	17359.947266	33.254814
484.614899	1262.914063	53445.156250	18233.748047	32.522240
484.968628	1297.046875	53638.578125	18850.414063	33.536213
485.322357	1228.781250	51253.832031	17699.000000	32.923943
485.675964	1338.006226	47840.550781	16404.228516	32.398708
486.029572	1265.189575	43598.980469	15007.059570	32.460762
486.383148	1274.291626	40517.921875	14167.392578	32.853996
486.736694	1292.495850	38324.320313	13653.125000	33.378395
487.090149	1317.526489	38149.105469	13612.165039	33.380699
487.443604	1235.607788	39025.183594	14001.279297	33.780937
487.796997	1283.393677	40593.015625	14442.730469	33.476124
488.150360	1228.781250	41824.074219	14893.283203	33.660313
488.503693	1281.118164	42527.207031	15462.164063	34.381554
488.856964	1253.812012	42363.371094	14945.621094	33.305656
489.210175	1262.914063	40078.746094	14581.537109	34.312347
489.563416	1285.669312	37564.296875	13785.105469	34.453995
489.916565	1233.332275	35600.523438	12763.396484	33.549625
490.269653	1303.873413	33422.847656	12196.791016	33.914276
490.622772	1283.393677	32555.876953	11771.269531	33.537075
490.975769	1312.975464	31993.822266	11734.860352	33.968700
491.328735	1308.424438	33224.878906	12060.259766	33.687435
491.681732	1285.669312	35063.500000	12569.976563	33.407436
492.034607	1385.792114	37218.417969	13753.248047	34.514515
492.387482	1276.567139	38679.300781	14199.250000	34.550102
492.740326	1265.189575	37445.968750	13814.686523	34.685539
493.093079	1221.954712	36148.921875	13405.092773	34.881748
493.445862	1206.026001	33188.472656	12296.914063	34.678047
493.798523	1244.709839	30598.927734	11382.155273	34.534885
494.151215	1231.056763	28186.876953	10688.121094	35.083572
494.503815	1308.424438	26232.203125	9896.240234	34.456314
494.856384	1224.230225	24721.257813	9350.115234	34.582607
495.208923	1158.240112	23590.324219	9215.859375	35.920067
495.561432	1274.291626	22887.187500	8801.714844	34.828388
495.913879	1244.709839	22680.115234	8656.081055	34.575371
496.266296	1342.557251	22429.808594	9020.164063	36.408760
496.618683	1278.842651	22650.533203	8753.928711	34.976578
496.970978	1265.189575	23260.373047	9081.603516	35.536934
497.323273	1265.189575	23301.332031	9038.368164	35.274681
497.675507	1251.536499	23330.914063	9254.542969	36.246521
498.027710	1256.087524	23674.517578	9261.370117	35.708488
498.379852	1292.495850	23333.189453	9297.778320	36.320465
498.731995	1240.158813	23016.892578	9133.940430	36.248695
499.084076	1233.332275	22625.503906	9054.296875	36.559937
499.436096	1328.904175	22416.156250	8892.735352	35.869213
499.788086	1265.189575	21931.468750	8888.184570	36.886150
500.140106	1281.118164	21419.476563	8433.080078	35.514126
500.491943	1265.189575	21059.945313	8542.304688	36.762844
500.843842	1246.985352	20868.800781	8451.284180	36.715759
501.195679	1287.944824	20522.921875	8119.058105	35.514019
501.547455	1237.883301	20181.593750	7989.353516	35.639641
501.899231	1158.240112	20088.296875	8014.384277	36.218296
502.250885	1297.046875	19680.978516	7993.904785	36.427780
502.602600	1278.842651	19781.101563	8196.425781	37.387775
502.954193	1351.659302	19635.468750	8169.119629	37.286873
503.305786	1356.210449	19824.337891	8068.996582	36.347954
503.657379	1262.914063	19576.304688	8068.996582	37.164513
504.008820	1292.495850	19819.787109	8034.863770	36.391548
504.360291	1322.077637	19933.562500	8050.792480	36.153564
504.711700	1326.628662	20202.074219	8269.242188	36.781189
505.063080	1267.465088	20202.074219	8344.334961	37.375317
505.414368	1235.607788	19915.357422	8166.844238	37.105618
505.765656	1319.802124	19906.255859	7939.291992	35.614594
506.116943	1340.281738	19910.806641	8103.129395	36.417103
506.468109	1267.465088	19626.367188	8062.170410	37.010410
506.819305	1281.118164	19701.458984	8228.283203	37.714642
507.170410	1319.802124	19708.285156	7966.598145	36.146519
507.521484	1301.597900	19740.142578	8030.312988	36.492657
507.872559	1235.607788	19828.888672	8107.680664	36.959980
508.223480	1312.975464	19890.328125	8337.507813	37.812340
508.574493	1246.985352	20117.878906	8123.609375	36.440372
508.925385	1290.220337	20229.380859	8328.406250	37.162083
509.276245	1278.842651	20370.462891	8246.487305	36.495823
509.627045	1326.628662	20755.025391	8469.488281	36.765049
509.977814	1356.210449	21071.322266	8590.090820	36.692059
510.328613	1244.709839	21276.119141	8692.489258	37.180504
510.679260	1274.291626	21203.302734	8833.571289	37.931030
511.029999	1276.567139	21619.722656	8794.887695	36.957493
511.380585	1319.802124	21551.457031	8881.357422	37.374874
511.731140	1290.220337	21674.335938	8851.776367	37.095337
512.081726	1246.985352	21806.316406	8940.521484	37.421139
512.432129	1265.189575	22329.685547	9038.368164	36.901802
512.782654	1276.567139	22354.716797	9240.889648	37.784729
513.133057	1196.923950	22693.769531	9309.155273	37.736847
513.483398	1292.495850	22554.962891	9136.215820	36.889980
513.833801	1290.220337	22766.585938	9252.267578	37.073532
514.183960	1221.954712	21949.673828	9156.695313	38.280819
514.534302	1221.954712	22077.103516	8917.765625	36.901253
514.884460	1260.638550	21917.816406	9086.154297	37.882793
515.234619	1276.567139	22036.142578	8942.796875	36.928642
515.584717	1244.709839	21546.906250	8895.010742	37.682133
515.934753	1272.016113	21924.642578	9008.787109	37.461437
516.284851	1283.393677	21936.021484	9058.848633	37.648746
516.634766	1351.659302	22265.970703	9147.593750	37.275600
516.984741	1260.638550	22325.134766	9147.593750	37.441936
517.334595	1242.434326	23080.607422	9447.961914	37.574238
517.684448	1317.526489	24104.591797	9805.218750	37.247852
518.034363	1269.740601	24448.195313	10032.771484	37.806797
518.384094	1244.709839	25312.892578	10613.029297	38.924080
518.733826	1217.403687	26919.410156	10754.111328	37.104916
519.083496	1246.985352	27442.781250	11150.051758	37.804028
519.433167	1281.118164	27818.242188	11352.573242	37.952320
519.782776	1306.148926	27638.476563	11102.265625	37.201866
520.132324	1331.179688	27369.964844	11147.776367	37.699902
520.481873	1251.536499	26696.410156	11052.204102	38.517262
520.831299	1285.669312	25836.263672	10583.447266	37.871906
521.180786	1292.495850	25551.822266	10396.854492	37.529312
521.530151	1249.260864	24982.943359	10280.802734	38.053692
521.879517	1260.638550	24830.482422	9925.821289	36.763851
522.228882	1333.455200	24853.238281	10276.251953	38.022446
522.578064	1276.567139	24018.121094	9944.026367	38.112869
522.927307	1297.046875	24514.185547	9841.627930	36.802902
523.276489	1256.087524	24109.142578	9930.373047	37.956787
523.625610	1303.873413	24650.716797	10016.842773	37.319691
523.974792	1240.158813	25053.484375	10030.496094	36.913521
524.323792	1215.128052	25426.669922	10483.324219	38.280075
524.672852	1237.883301	25956.865234	10428.711914	37.181255
525.021790	1285.669312	26791.982422	10958.908203	37.924885
525.370728	1258.363037	27806.863281	11145.500977	37.241795
525.719604	1260.638550	29531.708984	11573.298828	36.477783
526.068420	1256.087524	30712.705078	12349.250977	37.659325
526.417297	1312.975464	32453.478516	13104.724609	37.866276
526.765991	1272.016113	32951.816406	13286.765625	37.925587
527.114746	1285.669312	34346.710938	13716.839844	37.600662
527.463379	1253.812012	35170.449219	13871.575195	37.202286
527.812012	1244.709839	37238.898438	14936.518555	38.038944
528.160706	1340.281738	40194.800781	15641.929688	36.808197
528.509155	1240.158813	44561.523438	18010.748047	38.712055
528.857727	1231.056763	49645.039063	19740.142578	38.230869
529.206177	1233.332275	53058.320313	21342.109375	38.801315
529.554565	1265.189575	53385.992188	21774.458984	39.349491
529.902893	1285.669312	52464.406250	21301.150391	39.108974
530.251221	1269.740601	50284.457031	20138.359375	38.495827
530.599548	1267.465088	45756.171875	18354.351563	38.407246
530.947876	1267.465088	42800.269531	16918.498047	37.683544
531.296021	1328.904175	39412.019531	15648.756836	37.601578
531.644165	1274.291626	36806.550781	14679.384766	37.726543
531.992249	1358.485962	35138.593750	13967.146484	37.325695
532.340454	1290.220337	33980.351563	13468.807617	37.254627
532.688354	1231.056763	34019.035156	13300.418945	36.810329
533.036438	1290.220337	34681.210938	13725.941406	37.242741
533.384338	1372.139038	36720.078125	14533.750977	37.234455
533.732239	1303.873413	38954.640625	15182.274414	36.860874
534.080139	1308.424438	39666.878906	15530.429688	37.076588
534.427917	1246.985352	39277.765625	15252.816406	36.827618
534.775757	1292.495850	37582.500000	14854.599609	37.371456
535.123474	1294.771362	35686.992188	14383.567383	38.057430
535.471191	1253.812012	33914.363281	13393.715820	37.169930
535.818848	1233.332275	32448.925781	12797.529297	37.046219
536.166382	1267.465088	31852.740234	12590.457031	37.021057
536.513977	1294.771362	31500.035156	12401.587891	36.771130
536.861511	1258.363037	31695.728516	12654.170898	37.440189
537.208984	1347.108276	31741.240234	12601.833984	37.029270
537.556396	1317.526489	31659.320313	12752.018555	37.685619
537.903809	1251.536499	31079.062500	12449.374023	37.541962
538.251160	1276.567139	30391.855469	12303.741211	37.874168
538.598389	1203.750488	29081.156250	11630.186523	37.401024
538.945740	1276.567139	28202.804688	11252.450195	37.048927
539.292969	1246.985352	28007.109375	11172.807617	37.091839
539.640137	1228.781250	27071.871094	11004.418945	37.826893
539.987244	1317.526489	27693.087891	11113.643555	37.140888
540.334351	1276.567139	28002.558594	11429.941406	37.990635
540.681458	1221.954712	29579.494141	11973.790039	37.915260
541.028442	1246.985352	32319.222656	12947.712891	37.656532
541.375366	1242.434326	35366.144531	14024.035156	37.456654
541.722290	1292.495850	38442.648438	15428.031250	38.049736
542.069153	1256.087524	40012.757813	16172.125977	38.486374
542.416016	1269.740601	40902.488281	16233.565430	37.756214
542.762756	1246.985352	39366.511719	15819.420898	38.228268
543.109558	1317.526489	38388.035156	15202.754883	37.456268
543.456299	1260.638550	36763.312500	14724.895508	37.924625
543.802917	1324.353149	35411.656250	14203.800781	37.783707
544.149536	1240.158813	33677.707031	13400.541992	37.488598
544.496094	1342.557251	31429.494141	12674.650391	37.664494
544.842651	1253.812012	30141.548828	12117.148438	37.605354
545.189148	1276.567139	28560.062500	11605.156250	37.856544
545.535583	1276.567139	27556.556641	11209.215820	37.795479
545.882019	1269.740601	26487.062500	11172.807617	39.270893
546.228333	1294.771362	26425.623047	10942.979492	38.391888
546.574707	1294.771362	26177.591797	10924.775391	38.701416
546.920898	1338.006226	26382.388672	11115.918945	39.042339
547.267212	1303.873413	26047.886719	10963.458984	39.038071
547.613342	1253.812012	26214.000000	10795.070313	38.225906
547.959473	1301.597900	26022.855469	10676.743164	37.923416
548.305664	1219.679199	25428.945313	10503.803711	38.349468
548.651611	1283.393677	24718.982422	9980.434570	37.110401
548.997742	1260.638550	23355.945313	9363.768555	36.673534
549.343689	1196.923950	22602.748047	9213.583984	37.450836
549.689575	1224.230225	21342.109375	8781.234375	37.563622
550.035522	1276.567139	20993.955078	8637.876953	37.334099
550.381287	1317.526489	20145.185547	8198.701172	36.548225
550.727173	1328.904175	19917.632813	7939.291992	35.561268
551.072876	1262.914063	19157.609375	7898.332520	37.080364
551.418640	1283.393677	19419.294922	7743.597168	35.621078
551.764282	1283.393677	19257.732422	7868.750977	36.637550
552.109863	1281.118164	18818.556641	7677.607422	36.473339
552.455505	1283.393677	19194.017578	7447.779785	34.417488
552.801025	1256.087524	19549.000000	7716.291016	35.315338
553.146545	1324.353149	19667.326172	7921.087891	35.963280
553.491943	1342.557251	20133.808594	7830.066895	34.524094
553.837341	1272.016113	19744.693359	7820.964844	35.452080
554.182800	1322.077637	19913.082031	7757.250488	34.614445
554.528015	1206.026001	19574.029297	7786.832031	35.827553
554.873352	1326.628662	19121.201172	7593.413086	35.217392
555.218628	1278.842651	18859.515625	7513.769531	35.464664
555.563721	1267.465088	18597.832031	7522.871582	36.095058
555.908875	1269.740601	18315.666016	7195.196777	34.761715
556.254028	1235.607788	18233.748047	6944.889648	33.587685
556.599121	1333.455200	17776.369141	6956.267090	34.195957
556.944031	1256.087524	17728.582031	7095.073730	35.446888
557.289063	1265.189575	17569.296875	7015.430664	35.268665
557.633972	1260.638550	17664.867188	6949.440430	34.678875
557.978882	1258.363037	17546.541016	6806.082520	34.059795
558.323792	1260.638550	17316.712891	6849.317383	34.807255
558.668518	1281.118164	16982.210938	6853.868652	35.492756
559.013306	1301.597900	17100.539063	6630.867676	33.731815
559.358032	1287.944824	17052.751953	6637.694336	33.934761
559.702637	1233.332275	17125.570313	6589.908203	33.705612
560.047363	1258.363037	17114.191406	6601.285645	33.696903
560.391846	1338.006226	17177.906250	6512.540527	32.667721
560.736450	1299.322388	17155.150391	6735.541504	34.285305
561.080933	1278.842651	17202.937500	6639.969727	33.666759
561.425354	1210.577026	17107.365234	6676.377930	34.383053
561.769775	1212.852539	17161.978516	6730.990723	34.598373
562.114136	1253.812012	17239.345703	6787.878418	34.619217
562.458496	1363.036987	17535.164063	6551.224609	32.081047
562.802673	1274.291626	17339.468750	6635.418457	33.371105
563.146912	1269.740601	17141.498047	6594.459473	33.548386
563.491150	1292.495850	17173.355469	6624.041016	33.572144
563.835266	1326.628662	16741.005859	6480.683105	33.436672
564.179443	1367.588013	16809.271484	6564.877441	33.657532
564.523438	1306.148926	17000.416016	6439.723633	32.709869
564.867493	1303.873413	17266.652344	6546.673340	32.843903
565.211426	1269.740601	17309.886719	6451.101563	32.302452
565.555359	1312.975464	17623.908203	6605.836914	32.449776
565.899231	1240.158813	17730.857422	6742.368164	33.365532
566.243042	1242.434326	18254.228516	6883.450195	33.159439
566.586914	1303.873413	18852.689453	6944.889648	32.144711
566.930603	1315.250977	18832.210938	6981.297852	32.346062
567.274292	1276.567139	18980.119141	7186.094727	33.380459
567.617981	1351.659302	19080.242188	7072.318848	32.268005
567.961609	1338.006226	18734.363281	7033.634766	32.740349
568.305237	1267.465088	18622.861328	6701.408691	31.309820
568.648682	1274.291626	18172.308594	6922.134277	33.423107
568.992188	1267.465088	18083.564453	6646.796387	31.989172
569.335632	1233.332275	18053.982422	6583.081543	31.804649
569.679016	1246.985352	17801.398438	6569.428711	32.151203
570.022461	1224.230225	17626.183594	6580.806152	32.658161
570.365662	1233.332275	17878.767578	6617.214355	32.344494
570.708984	1272.016113	17733.132813	6473.856445	31.600773
571.052185	1272.016113	17903.796875	6544.397949	31.700644
571.395386	1246.985352	18067.634766	6544.397949	31.493509
571.738525	1290.220337	18654.718750	6630.867676	30.756128
572.081604	1287.944824	18679.750000	6776.500977	31.558290
572.424683	1328.904175	18966.466797	6867.521973	31.402399
572.767578	1312.975464	19444.326172	6758.296875	30.032627
573.110596	1292.495850	19298.691406	6740.092773	30.254013
573.453552	1319.802124	19221.324219	6717.337402	30.151264
573.796387	1347.108276	19357.855469	6865.246094	30.638025
574.139282	1228.781250	18779.873047	6744.643555	31.427460
574.481995	1244.709839	18443.095703	6719.612793	31.833817
574.824768	1292.495850	18602.382813	6551.224609	30.379913
575.167480	1281.118164	18748.015625	6592.183594	30.406460
575.510132	1287.944824	18085.839844	6617.214355	31.725819
575.852722	1301.597900	18481.779297	6637.694336	31.059607
576.195251	1224.230225	18236.023438	6430.621582	30.604603
576.537842	1224.230225	18060.808594	6339.601074	30.382486
576.880188	1258.363037	17712.654297	6218.998535	30.147976
577.222717	1249.260864	17425.937500	6127.977539	30.158957
577.565063	1231.056763	17052.751953	6075.640625	30.619879
577.907410	1269.740601	17007.242188	6027.854492	30.234238
578.249756	1240.158813	16558.964844	5848.088379	30.080215
578.591919	1221.954712	16053.798828	5702.455078	30.208654
578.934204	1292.495850	15687.440430	5606.883301	29.971548
579.276306	1281.118164	15473.541016	5481.729492	29.597563
579.618469	1217.403687	15177.723633	5336.096191	29.502850
579.960571	1262.914063	15159.519531	5322.443359	29.212381
580.302551	1251.536499	14674.833984	5256.453125	29.835564
580.644531	1283.393677	14836.395508	5308.790039	29.701143
580.986511	1326.628662	14672.558594	5215.493652	29.138960
581.328369	1367.588013	14799.987305	5022.074219	27.206505
581.670227	1246.985352	14313.025391	5206.391602	30.303032
582.012024	1258.363037	14324.403320	5103.993164	29.432255
582.353821	1297.046875	14099.126953	5085.789063	29.594740
582.695496	1203.750488	14194.699219	5022.074219	29.392183
583.037231	1303.873413	14014.932617	4883.267578	28.159683
583.378845	1240.158813	13926.187500	4958.359863	29.309420
583.720398	1287.944824	13919.360352	4860.512207	28.283190
584.062012	1306.148926	13719.115234	4924.227051	29.147570
584.403442	1322.077637	13946.666992	4876.440918	28.154287
584.744934	1269.740601	13580.308594	4799.073242	28.669127
585.086365	1290.220337	13741.870117	4855.961426	28.636698
585.427734	1235.607788	13901.156250	4728.532227	27.578152
585.768982	1274.291626	13628.093750	4696.674805	27.703077
586.110291	1319.802124	13675.879883	4621.582520	26.721912
586.451599	1274.291626	13512.042969	4712.603516	28.095947
586.792725	1312.975464	13557.552734	4764.940430	28.191784
587.133850	1331.179688	13591.685547	4578.347656	26.484779
587.474915	1312.975464	13589.410156	4776.318359	28.211308
587.815979	1267.465088	13593.960938	4635.235840	27.321396
588.157043	1242.434326	13532.522461	4646.613281	27.698572
588.497925	1249.260864	13691.808594	4657.991211	27.395760
588.838867	1265.189575	13744.145508	4587.449707	26.622902
589.179749	1287.944824	14083.198242	4582.898926	25.751377
589.520569	1183.270874	14049.065430	4512.357910	25.875486
589.861450	1258.363037	14272.066406	4789.971191	27.137611
590.202087	1297.046875	13933.013672	4598.827637	26.130020
590.542847	1269.740601	14087.749023	4587.449707	25.883186
590.883484	1349.383789	14287.995117	4746.736328	26.257475
591.224121	1292.495850	13878.401367	4648.889160	26.667873
591.564636	1224.230225	14171.943359	4694.399414	26.801407
591.905151	1269.740601	13914.809570	4589.725586	26.255173
592.245667	1196.923950	13973.973633	4430.438965	25.307213
592.585999	1249.260864	13746.420898	4416.785645	25.345957
592.926453	1278.842651	13364.133789	4428.163574	26.059122
593.266724	1306.148926	13553.001953	4387.204102	25.157932
593.607056	1342.557251	13678.155273	4409.959473	24.866264
593.947388	1269.740601	13568.930664	4323.489746	24.828861
594.287476	1317.526489	13912.534180	4380.377441	24.317976
594.627686	1333.455200	14103.677734	4394.030762	23.966501
594.967773	1256.087524	13944.391602	4403.132813	24.802727
595.307861	1274.291626	14044.514648	4423.612305	24.661440
595.647888	1276.567139	14394.944336	4437.265625	24.093670
595.987854	1272.016113	14572.435547	4516.908691	24.396917
596.327820	1176.444214	14799.987305	4469.123047	24.169033
596.667725	1278.842651	14997.958008	4578.347656	24.050421
597.007568	1231.056763	15792.114258	4664.817871	23.581812
597.347351	1294.771362	16092.483398	4719.430176	23.143164
597.687073	1269.740601	16342.790039	4826.379395	23.596012
598.026794	1294.771362	16269.973633	4780.869141	23.279137
598.366455	1315.250977	16087.931641	4796.797852	23.567469
598.706116	1283.393677	15626.000977	4657.991211	23.528481
599.045654	1256.087524	15179.999023	4589.725586	23.941824
599.385193	1256.087524	14576.986328	4391.755371	23.539463
599.724731	1333.455200	14046.790039	4095.937500	21.729015
600.064087	1287.944824	13860.197266	4082.284424	22.226246
600.403564	1322.077637	13461.981445	3982.161377	21.911900
600.742920	1303.873413	13245.806641	4007.192139	22.637196
601.082153	1276.567139	13172.990234	3929.824463	22.302984
601.421387	1260.638550	13286.765625	3827.426025	21.343428
601.760620	1322.077637	13061.489258	3802.395264	21.128124
602.099854	1283.393677	13043.285156	3952.579590	22.697369
602.438843	1290.220337	13036.458984	3843.354736	21.735762
602.778015	1269.740601	13275.388672	3922.997803	22.100075
603.117065	1328.904175	13568.930664	4080.008789	22.476295
603.456055	1272.016113	14064.994141	4061.804688	21.807186
603.794983	1260.638550	14319.852539	4070.906738	21.519428
604.133850	1278.842651	14745.375000	4218.815430	21.831697
604.472778	1249.260864	15371.142578	4268.876953	21.382534
604.811584	1278.842651	15694.266602	4350.795898	21.310183
605.150330	1249.260864	16167.575195	4560.143555	22.193411
605.489075	1285.669312	16445.189453	4300.734375	19.888920
605.827698	1306.148926	16374.647461	4553.316895	21.549381
606.166382	1269.740601	16128.891602	4421.336914	21.209799
606.504883	1178.719727	15705.644531	4166.478516	20.567043
606.843445	1272.016113	15182.274414	4159.651855	20.759039
607.181946	1310.699951	14708.966797	4061.804688	20.533289
607.520386	1249.260864	14324.403320	3963.957275	20.762270
607.858826	1299.322388	13967.146484	3922.997803	20.711334
608.197083	1240.158813	13505.215820	3740.956299	20.389610
608.535461	1246.985352	13282.214844	3734.129639	20.665533
608.873718	1285.669312	13500.665039	3804.670898	20.622204
609.211914	1281.118164	13744.145508	3825.150391	20.412634
609.550171	1356.210449	14231.107422	3816.048340	19.105690
609.888245	1301.597900	14367.638672	3847.905762	19.487984
610.226318	1349.383789	14570.160156	3900.242676	19.294319
610.564392	1312.975464	14793.161133	3925.273438	19.378798
610.902344	1303.873413	14715.792969	3959.406250	19.799795
611.240295	1297.046875	14504.169922	3966.232666	20.210199
611.578247	1253.812012	14385.842773	3918.446777	20.291109
611.916138	1285.669312	13989.902344	3827.426025	20.007164
612.253845	1317.526489	13671.329102	3813.772949	20.206301
612.591675	1269.740601	13496.114258	3670.415039	19.635210
612.929382	1290.220337	13038.734375	3568.016602	19.387953
613.267090	1328.904175	12674.650391	3499.750977	19.133574
613.604736	1215.128052	12387.935547	3547.536865	20.875761
613.942261	1328.904175	12328.771484	3454.240479	19.321474
614.279785	1322.077637	12162.658203	3363.219727	18.828716
614.617310	1301.597900	11939.657227	3372.321777	19.465240
614.954712	1281.118164	11914.626953	3365.495361	19.601971
615.292175	1251.536499	11828.157227	3319.984863	19.556797
615.629517	1233.332275	11627.911133	3310.882813	19.986866
615.966797	1256.087524	11762.166992	3274.474365	19.211609
616.304138	1235.607788	11734.860352	3335.913574	20.004333
616.641296	1328.904175	11768.993164	3299.505127	18.875328
616.978516	1308.424438	11507.308594	3217.586426	18.719322
617.315552	1285.669312	11623.360352	3242.617188	18.930222
617.652771	1322.077637	11470.900391	3281.301025	19.304934
617.989685	1269.740601	11480.002930	3370.046387	20.570536
618.326721	1262.914063	11864.565430	3253.994629	18.780853
618.663696	1276.567139	11555.094727	3279.025391	19.481956
619.000549	1256.087524	11703.003906	3192.555664	18.536266
619.337463	1276.567139	11586.952148	3306.331787	19.686604
619.674194	1347.108276	11345.747070	3194.831299	18.479746
620.010986	1331.179688	11539.166016	3194.831299	18.256800
620.347778	1265.189575	11566.472656	3160.698486	18.400707
620.684387	1285.669312	11318.440430	3192.555664	19.006577
621.020996	1297.046875	11502.757813	3149.320801	18.149387
621.357605	1283.393677	11382.155273	3056.024414	17.552952
621.694214	1285.669312	11252.450195	3117.463379	18.378994
622.030579	1285.669312	11206.940430	3094.708252	18.233942
622.367065	1249.260864	11179.633789	3081.055176	18.446379
622.703430	1265.189575	11275.206055	3158.422852	18.913387
623.039795	1253.812012	11120.469727	3019.616211	17.896679
623.376160	1228.781250	11068.132813	3176.626953	19.796484
623.712402	1287.944824	10945.254883	3074.228516	18.496698
624.048645	1246.985352	11079.510742	3053.749023	18.375378
624.384766	1290.220337	10988.490234	3012.789551	17.761614
624.720886	1240.158813	11056.755859	3126.565674	19.216505
625.057007	1253.812012	11084.061523	3062.851074	18.402779
625.392944	1340.281738	11059.031250	2983.207764	16.904705
625.729004	1221.954712	11165.980469	3094.708252	18.832952
626.064941	1260.638550	11313.889648	3069.677490	17.994566
626.400818	1322.077637	11366.226563	3131.116699	18.010876
626.736633	1315.250977	11812.228516	3192.555664	17.884241
627.072449	1224.230225	11912.351563	3279.025391	19.225037
627.408264	1251.536499	12406.139648	3162.973877	17.135860
627.743896	1237.883301	12028.403320	3149.320801	17.714045
628.079590	1251.536499	12094.392578	3306.331787	18.950684
628.415161	1287.944824	11998.821289	3217.586426	18.015720
628.750793	1278.842651	11932.831055	3267.647949	18.667238
629.086365	1174.168701	11803.125977	3219.861816	19.246414
629.421753	1185.546387	11414.012695	3096.983887	18.687429
629.757263	1299.322388	11373.052734	3206.208740	18.929296
630.092651	1317.526489	10983.938477	3035.544678	17.773069
630.427917	1260.638550	11065.857422	3133.392090	19.099560
630.763184	1287.944824	10920.224609	3115.187988	18.969997
631.098511	1292.495850	10863.335938	3058.300049	18.449835
631.433716	1278.842651	10640.334961	3042.371338	18.838116
631.768799	1310.699951	10367.272461	2935.421875	17.939701
632.103943	1287.944824	10258.047852	2937.697266	18.391676
632.438965	1274.291626	10201.160156	2965.003662	18.939589
632.773987	1228.781250	10337.691406	2926.319824	18.636023
633.109070	1317.526489	10319.487305	2810.268311	16.582407
633.443848	1235.607788	10237.568359	2985.483398	19.438828
633.778870	1299.322388	10098.761719	2953.625977	18.800102
634.113708	1290.220337	10301.282227	2935.421875	18.257578
634.448425	1262.914063	10417.333984	2858.054199	17.424809
634.783264	1237.883301	10522.007813	2867.156250	17.549021
635.117859	1269.740601	10276.251953	2842.125488	17.458311
635.452576	1290.220337	10456.018555	2864.880615	17.179741
635.787170	1242.434326	10242.119141	2987.758789	19.393173
636.121704	1240.158813	9821.147461	2846.676514	18.721827
636.456177	1290.220337	10057.801758	2928.595215	18.686737
636.790588	1285.669312	9755.157227	2807.992676	17.974207
637.125122	1265.189575	9673.239258	2814.819336	18.430311
637.459412	1310.699951	9791.566406	2767.033203	17.171988
637.793762	1190.097412	9516.227539	2796.614990	19.294889
638.128052	1240.158813	9306.879883	2730.625000	18.476728
638.462280	1303.873413	9368.319336	2801.166016	18.566589
638.796509	1251.536499	9466.166992	2712.420898	17.783932
639.130615	1292.495850	8915.490234	2689.665527	18.328358
639.464722	1324.353149	9236.338867	2730.625000	17.773943
639.798767	1285.669312	9154.419922	2644.155273	17.264317
640.132751	1281.118164	8872.255859	2744.278076	19.274580
640.466736	1262.914063	9140.766602	2694.216553	18.168688
640.800598	1246.985352	9106.633789	2746.553711	19.079330
641.134521	1285.669312	8961.000977	2612.297852	17.284315
641.468262	1326.628662	8883.632813	2730.625000	18.578743
641.802063	1340.281738	8833.571289	2625.950928	17.157608
642.135803	1237.883301	8678.835938	2664.634766	19.174313
642.469421	1262.914063	8749.377930	2607.746826	17.963524
642.803101	1276.567139	8606.019531	2646.430664	18.689848
643.136658	1260.638550	8722.071289	2605.471436	18.023788
643.470215	1246.985352	8526.375977	2639.604248	19.130981
643.803711	1278.842651	8449.008789	2598.644775	18.406857
644.137085	1217.403687	8464.937500	2696.492188	20.408163
644.470581	1310.699951	8410.325195	2553.134277	17.500000
644.803833	1292.495850	8408.049805	2514.450439	17.173008
645.137207	1228.781250	8385.293945	2500.797363	17.774244
645.470459	1233.332275	8371.640625	2571.338623	18.744024
645.803589	1253.812012	8367.089844	2489.419678	17.370440
646.136780	1256.087524	8487.692383	2493.970703	17.117683
646.469849	1256.087524	8455.834961	2562.236328	18.141592
646.802979	1290.220337	8392.121094	2484.868652	16.821529
647.135986	1190.097412	8553.682617	2548.583252	18.448702
647.468994	1226.505737	8371.640625	2701.043213	20.636944
647.801941	1251.536499	8489.967773	2521.277100	17.541655
648.134766	1203.750488	8362.539063	2600.920166	19.516846
648.467651	1292.495850	8492.243164	2464.388916	16.276865
648.800354	1253.812012	8453.559570	2559.960938	18.141594
649.133179	1265.189575	8514.999023	2550.858887	17.733835
649.465881	1274.291626	8455.834961	2507.624023	17.173639
649.798462	1292.495850	8533.203125	2612.297852	18.227530
650.131104	1256.087524	8451.284180	2660.083740	19.512964
650.463623	1351.659302	8410.325195	2650.981689	18.407478
650.796143	1297.046875	8314.752930	2619.124512	18.839170
651.128662	1278.842651	8360.263672	2541.756836	17.834192
651.461060	1306.148926	8389.844727	2516.726074	17.089626
651.793396	1310.699951	8483.141602	2455.286865	15.958121
652.125732	1269.740601	8355.711914	2553.134277	18.111753
652.458008	1306.148926	8596.917969	2514.450439	16.573032
652.790222	1310.699951	8521.825195	2546.307861	17.134745
653.122437	1326.628662	8387.569336	2619.124512	18.304869
653.454529	1326.628662	8337.507813	2614.573486	18.370661
653.786621	1276.567139	8587.815430	2557.685303	17.522564
654.118713	1244.709839	8398.947266	2555.409912	18.320612
654.450623	1253.812012	8269.242188	2571.338623	18.780411
654.782654	1253.812012	8173.670898	2525.828125	18.382111
655.114502	1242.434326	8182.772949	2498.521729	18.098358
655.446350	1262.914063	8046.241699	2484.868652	18.014088
655.778198	1287.944824	8037.139648	2528.103516	18.374912
656.109863	1276.567139	8030.312988	2507.624023	18.227764
656.441650	1249.260864	8037.139648	2503.072998	18.471338
656.773254	1358.485962	8107.680664	2619.124512	18.678354
657.104919	1276.567139	8203.252930	2489.419678	17.509853
657.436462	1283.393677	8037.139648	2503.072998	18.059301
657.767944	1265.189575	8082.649902	2482.593262	17.857143
658.099548	1303.873413	8182.772949	2555.409912	18.193848
658.430908	1256.087524	8285.170898	2591.818115	19.002913
658.762268	1326.628662	8342.059570	2594.093750	18.066818
659.093628	1251.536499	8526.375977	2637.328613	19.049110
659.424927	1237.883301	8758.479492	2826.196777	21.119516
659.756226	1342.557251	9197.655273	2796.614990	18.511007
660.087341	1267.465088	9300.053711	2812.543701	19.235126
660.418518	1274.291626	9529.880859	2796.614990	18.439913
660.749573	1265.189575	9538.983398	2739.727051	17.821781
661.080627	1276.567139	9279.574219	2744.278076	18.339493
661.411621	1276.567139	9179.451172	2685.114502	17.823208
661.742554	1249.260864	8931.418945	2764.757813	19.727489
662.073547	1319.802124	8844.949219	2726.073975	18.687634
662.404297	1297.046875	8592.366211	2676.012451	18.902060
662.735229	1297.046875	8417.151367	2680.563477	19.431128
663.065979	1226.505737	8492.243164	2632.777588	19.354841
663.396667	1297.046875	8144.088867	2673.737061	20.106350
663.727417	1246.985352	8005.282227	2600.920166	20.033669
664.057922	1185.546387	7707.188965	2528.103516	20.586182
664.388611	1301.597900	7454.605957	2505.348389	19.563610
664.719116	1287.944824	7625.270020	2537.205811	19.712749
665.049622	1203.750488	7595.688477	2575.889648	21.466715
665.380005	1262.914063	7516.045410	2498.521729	19.759823
665.710388	1310.699951	7404.544922	2425.705078	18.297235
666.040771	1294.771362	7522.871582	2493.970703	19.254658
666.371033	1290.220337	7456.881836	2453.011475	18.856089
666.701294	1297.046875	7359.034180	2432.531738	18.731232
667.031555	1283.393677	7338.554688	2432.531738	18.977827
667.361633	1258.363037	7543.351563	2480.317627	19.442432
667.691772	1276.567139	7293.043945	2473.491211	19.894104
668.021790	1215.128052	7447.779785	2512.175049	20.810516
668.351807	1276.567139	7440.953125	2600.920166	21.483942
668.681763	1292.495850	7352.207520	2468.940186	19.414196
669.011719	1319.802124	7370.412109	2466.664551	18.954493
669.341614	1324.353149	7461.432617	2532.654541	19.688540
669.671387	1272.016113	7552.453613	2412.052002	18.152174
670.001221	1306.148926	7436.401855	2516.726074	19.747589
670.330933	1315.250977	7443.228516	2487.144287	19.123655
670.660583	1294.771362	7552.453613	2464.388916	18.690907
670.990173	1297.046875	7461.432617	2459.837891	18.863047
671.319763	1310.699951	7388.616211	2468.940186	19.056536
671.649292	1283.393677	7320.350586	2400.674561	18.507353
671.978821	1333.455200	7286.217773	2468.940186	19.074924
672.308289	1224.230225	7147.410645	2443.909424	20.591625
672.637695	1244.709839	7108.727051	2491.695313	21.265038
672.966980	1324.353149	7231.604980	2393.847900	18.104776
673.296326	1317.526489	6974.471191	2396.123291	19.066772
673.625610	1294.771362	7076.869629	2441.633789	19.834711
673.954773	1262.914063	7156.512695	2512.175049	21.196913
674.283936	1299.322388	7035.910156	2416.603027	19.476397
674.613037	1210.577026	6992.675293	2434.807373	21.172770
674.942078	1224.230225	6931.236328	2398.398926	20.574163
675.271118	1249.260864	6865.246094	2525.828125	22.730957
675.600098	1315.250977	6938.062988	2396.123291	19.222984
675.928955	1253.812012	6885.726074	2462.113525	21.454544
676.257813	1319.802124	6767.398926	2455.286865	20.843775
676.586670	1292.495850	6767.398926	2446.184814	21.072317
676.915466	1312.975464	6771.949707	2368.817139	19.341394
677.244141	1342.557251	6724.164063	2416.603027	19.957716
677.572876	1226.505737	6769.674316	2443.909424	21.962234
677.901489	1253.812012	6999.501953	2366.541748	19.366339
678.230042	1262.914063	6901.654785	2412.052002	20.379337
678.558594	1306.148926	6997.226563	2421.154053	19.592161
678.887085	1244.709839	6831.113281	2421.154053	21.059063
679.215515	1292.495850	6862.970703	2407.500977	20.016340
679.543945	1249.260864	6858.419922	2455.286865	21.501013
679.872253	1303.873413	6958.542480	2564.511963	22.293764
680.200562	1312.975464	7088.247070	2557.685303	21.552404
680.528809	1331.179688	7279.391113	2562.236328	20.696249
680.856995	1235.607788	7472.810547	2584.991699	21.634441
681.185120	1212.852539	7611.617188	2682.839111	22.972975
681.513306	1312.975464	7522.871582	2537.205811	19.714184
681.841309	1390.343262	7625.270020	2625.950928	19.817516
682.169373	1331.179688	7388.616211	2575.889648	20.548460
682.497314	1285.669312	7422.749023	2621.399902	21.764921
682.825134	1360.761475	7388.616211	2562.236328	19.932049
683.153076	1308.424438	7268.013672	2569.062988	21.153111
683.480896	1249.260864	7063.216797	2559.960938	22.544031
683.808655	1276.567139	7156.512695	2621.399902	22.871519
684.136414	1240.158813	7088.247070	2482.593262	21.245138
684.464050	1221.954712	6922.134277	2427.980713	21.157684
684.791626	1272.016113	6735.541504	2489.419678	22.282381
685.119263	1285.669312	6783.327637	2550.858887	23.013245
685.446838	1287.944824	6665.000488	2432.531738	21.286499
685.774292	1283.393677	6569.428711	2371.092773	20.576841
686.101685	1297.046875	6521.642578	2423.429688	21.559235
686.429077	1285.669312	6494.336426	2416.603027	21.712536
686.756348	1231.056763	6441.999512	2352.888428	21.528381
687.083679	1194.648438	6426.070801	2414.327637	23.314486
687.410950	1276.567139	6441.999512	2471.215576	23.127752
687.738159	1315.250977	6496.611816	2482.593262	22.529646
688.065308	1328.904175	6569.428711	2582.716064	23.925314
688.392395	1265.189575	6587.632813	2466.664551	22.573748
688.719421	1256.087524	6596.734863	2473.491211	22.795057
689.046448	1276.567139	6594.459473	2530.379150	23.577234
689.373413	1244.709839	6692.306641	2589.542725	24.686720
689.700317	1285.669312	6510.265137	2505.348389	23.344946
690.027100	1290.220337	6298.641602	2475.766602	23.671057
690.353943	1297.046875	6401.040039	2387.021240	21.355326
690.680725	1235.607788	6182.589844	2355.164063	22.631098
691.007446	1308.424438	6325.947754	2530.379150	24.353743
691.334106	1278.842651	6180.314453	2366.541748	22.191277
691.660645	1260.638550	6105.222168	2366.541748	22.827621
691.987244	1308.424438	6021.027832	2293.724854	20.907772
692.313721	1249.260864	5980.068848	2334.684326	22.943722
692.640259	1253.812012	5914.078613	2325.582275	22.998047
692.966675	1267.465088	5941.384766	2396.123291	24.148001
693.293030	1353.934937	5866.292480	2307.378174	21.129604
693.619324	1228.781250	5807.128906	2318.755615	23.807156
693.945618	1158.240112	5941.384766	2268.694336	23.215988
694.271851	1278.842651	5727.485840	2352.888428	24.143223
694.598083	1283.393677	5663.771484	2341.510986	24.155846
694.924194	1335.730713	5479.454102	2298.276123	23.228996
695.250244	1244.709839	5675.148926	2214.081787	21.879818
695.576294	1242.434326	5600.056641	2389.296875	26.318541
695.902283	1285.669312	5668.322266	2305.102539	23.260643
696.228210	1283.393677	5452.147949	2275.520752	23.799126
696.554138	1319.802124	5766.169922	2275.520752	21.494368
696.879944	1242.434326	5738.863281	2316.480225	23.886644
697.205750	1319.802124	5775.271973	2348.337402	23.084778
697.531433	1274.291626	5827.608887	2286.898438	22.238880
697.857178	1206.026001	5893.598633	2373.368164	24.902912
698.182739	1256.087524	6032.405762	2402.949951	24.011433
698.508423	1242.434326	6391.937988	2380.194824	22.094564
698.833984	1251.536499	6528.469238	2505.348389	23.760241
699.159485	1272.016113	6753.745605	2523.552490	22.831049
699.484924	1267.465088	6922.134277	2496.246338	21.730383
699.810303	1272.016113	7249.809082	2605.471436	22.306816
700.135681	1226.505737	7158.788574	2698.767578	24.817797
700.460999	1310.699951	7042.736816	2523.552490	21.159189
700.786255	1299.322388	6944.889648	2559.960938	22.329704
701.111450	1246.985352	6696.857910	2655.532715	25.845510
701.436646	1240.158813	6653.623047	2443.909424	22.236235
701.761719	1235.607788	6376.009277	2500.797363	24.612661
702.086792	1244.709839	6139.354980	2455.286865	24.732683
702.411865	1285.669312	5977.792969	2343.786377	22.550920
702.736816	1290.220337	5877.670410	2357.439453	23.263884
703.061646	1287.944824	5697.904297	2273.245361	22.342621
703.386536	1242.434326	5559.097168	2268.694336	23.774384
703.711365	1281.118164	5452.147949	2311.929199	24.713587
704.036194	1283.393677	5429.392578	2202.704102	22.173435
704.360901	1287.944824	5249.626465	2193.602051	22.860424
704.685547	1237.883301	5131.299316	2168.571289	23.904150
705.010132	1258.363037	5195.014160	2264.143311	25.549133
705.334717	1253.812012	5265.555176	2261.867676	25.127623
705.659302	1246.985352	5097.166504	2259.592041	26.300236
705.983765	1231.056763	4992.492676	2143.540527	24.258921
706.308228	1253.812012	4899.196289	2113.958740	23.595503
706.632568	1178.719727	5101.717773	2116.234375	23.897913
706.956909	1246.985352	4974.288574	2027.489014	20.940170
707.281189	1278.842651	5081.237793	2168.571289	23.399164
707.605408	1262.914063	5038.002930	2116.234375	22.603979
707.929626	1240.158813	4815.001953	2154.918213	25.588797
708.253784	1365.312500	4978.839355	2202.704102	23.173803
708.577820	1317.526489	4978.839355	2152.642578	22.809196
708.901855	1246.985352	5008.421387	2234.561523	26.255297
709.225830	1312.975464	5131.299316	2134.438477	21.513708
709.549805	1322.077637	5169.983398	2095.754639	20.106443
709.873718	1303.873413	5060.758301	2123.060791	21.804964
710.197510	1242.434326	5058.482910	2216.357178	25.521763
710.521362	1372.139038	5138.125977	2261.867676	23.625378
710.845093	1331.179688	5024.350098	2214.081787	23.906345
711.168701	1278.842651	5210.942871	2138.989502	21.874998
711.492432	1212.852539	5208.666992	2277.796387	26.651484
711.816040	1246.985352	5261.003906	2280.071777	25.736961
712.139587	1246.985352	5392.984375	2202.704102	23.051592
712.463074	1267.465088	5470.352051	2191.326416	21.981590
712.786499	1226.505737	5438.494629	2293.724854	25.337654
713.109924	1308.424438	5395.259766	2225.459229	22.438749
713.433350	1235.607788	5340.647461	2193.602051	23.337029
713.756592	1340.281738	5301.963379	2189.051025	21.424469
714.079834	1249.260864	5251.901855	2189.051025	23.479252
714.403015	1272.016113	5119.921875	2157.193604	23.004137
714.726196	1231.056763	5133.574707	2268.694336	26.588924
715.049255	1208.301514	5199.564941	2191.326416	24.629417
715.372375	1274.291626	4956.084473	2157.193604	23.980217
715.695435	1303.873413	4994.768066	2195.877686	24.167698
716.018311	1260.638550	5069.860352	2189.051025	24.372761
716.341248	1262.914063	5179.085449	2152.642578	22.719345
716.664063	1317.526489	5069.860352	2132.163086	21.710131
716.987000	1256.087524	5126.748535	2198.153076	24.338621
717.309692	1283.393677	5247.351074	2077.550537	20.034445
717.632385	1244.709839	5017.523438	2170.846924	24.547651
717.955078	1281.118164	4896.920898	2141.265137	23.788548
718.277649	1328.904175	4874.165527	2136.714111	22.785625
718.600220	1221.954712	4880.992188	2123.060791	24.626860
718.922791	1219.679199	4758.113770	2007.009399	22.250805
719.245300	1262.914063	4541.939453	2079.825928	24.913252
719.567688	1317.526489	4582.898926	2113.958740	24.390242
719.890015	1335.730713	4512.357910	2038.866699	22.134672
720.212341	1292.495850	4639.787109	1981.978638	20.598230
720.534607	1294.771362	4464.571777	1950.121338	20.674803
720.856873	1237.883301	4241.570801	1988.805176	25.000000
721.179016	1219.679199	4339.417969	1915.988525	22.319475
721.501160	1340.281738	4250.672852	1936.468262	20.484756
721.823242	1267.465088	4241.570801	1915.988525	21.805662
722.145264	1274.291626	4205.162598	1945.570313	22.903727
722.467224	1303.873413	4214.264648	1900.059814	20.484753
722.789185	1306.148926	4218.815430	1906.886475	20.625002
723.111023	1276.567139	4241.570801	1913.713013	21.488873
723.432861	1256.087524	4080.008789	1895.508789	22.643026
723.754578	1240.158813	4070.906738	1947.845825	25.000000
724.076294	1360.761475	4093.661865	1915.988525	20.316402
724.397949	1319.802124	4125.519043	1929.641602	21.735603
724.719666	1260.638550	4093.661865	1890.957764	22.248995
725.041260	1215.128052	4118.692871	1915.988525	24.137930
725.362732	1249.260864	4134.621094	1934.192627	23.738171
725.684265	1283.393677	4036.773926	1961.498901	24.628098
726.005676	1290.220337	4107.314941	1966.049927	23.990305
726.327087	1244.709839	4039.049316	1993.356201	26.791533
726.648438	1217.403687	4268.876953	1938.743774	23.639076
726.969666	1269.740601	4196.060547	1956.947876	23.483669
727.290894	1246.985352	4182.407227	1902.335449	22.325584
727.612061	1301.597900	4216.540039	1927.366089	21.467602
727.933228	1294.771362	4225.642090	1968.325439	22.981365
728.254395	1310.699951	4291.632324	1938.743774	21.068705
728.575378	1262.914063	4252.948242	1977.427612	23.896502
728.896301	1265.189575	4394.030762	1997.907227	23.418179
729.217285	1278.842651	4389.479492	1879.580200	19.312366
729.538147	1201.474976	4355.346680	1995.631714	25.180376
729.858948	1290.220337	4446.367676	1966.049927	21.413118
730.179810	1199.199463	4414.510254	2000.182739	24.911535
730.500549	1174.168701	4364.448730	1895.508789	22.610558
730.821228	1285.669312	4412.234863	2034.315552	23.944685
731.141846	1235.607788	4291.632324	1865.927002	20.625463
731.462402	1237.883301	4391.755371	1970.601074	23.232325
731.782898	1262.914063	4366.724609	1956.947876	22.360703
732.103455	1297.046875	4516.908691	1881.855713	18.162544
732.423889	1294.771362	4343.969238	2025.213501	23.955223
732.744263	1276.567139	4259.774902	1981.978638	23.646074
733.064636	1274.291626	4455.469727	2082.101563	25.393419
733.384888	1301.597900	4475.949219	2022.937988	22.724016
733.705200	1199.199463	4405.408203	2088.927979	27.750174
734.025330	1285.669312	4405.408203	1997.907227	22.830050
734.345520	1235.607788	4544.214844	2020.662476	23.727650
734.665527	1301.597900	4296.183105	1941.019287	21.352587
734.985596	1308.424438	4282.530273	1931.917114	20.964037
735.305542	1253.812012	4405.408203	1963.774414	22.527075
735.625549	1308.424438	4287.081055	1915.988525	20.397251
735.945435	1240.158813	4186.958496	1922.815063	23.166021
736.265259	1301.597900	4293.907715	1984.254150	22.813688
736.585083	1301.597900	4155.101074	1904.610962	21.132378
736.904785	1276.567139	4000.365479	1868.202637	21.720972
737.224426	1308.424438	4073.182129	1820.416626	18.518518
737.544128	1256.087524	4000.365479	1886.406738	22.968491
737.863708	1310.699951	3975.334961	1931.917114	23.313406
738.183289	1201.474976	4007.192139	1840.896362	22.789944
738.502808	1294.771362	4105.039551	1890.957764	21.214575
738.822205	1294.771362	3995.814453	1929.641602	23.504633
739.141541	1303.873413	4029.947266	1920.539551	22.621037
739.460938	1287.944824	4004.916504	1941.019287	24.036852
739.780212	1283.393677	4209.713379	2022.937988	25.272163
740.099426	1287.944824	4132.345703	1911.437500	21.920000
740.418640	1299.322388	4118.692871	1950.121338	23.083128
740.737793	1226.505737	4148.274414	1938.743774	24.376949
741.056885	1244.709839	3988.988037	1922.815063	24.709784
741.375977	1290.220337	3934.375488	1886.406738	22.547329
741.694946	1287.944824	4039.049316	1961.498901	24.483042
742.013855	1208.301514	4023.120850	1902.335449	24.656429
742.332703	1281.118164	3925.273438	1902.335449	23.493979
742.651550	1208.301514	3886.589600	1909.161987	26.168226
742.970398	1267.465088	3800.119629	1936.468262	26.415098
743.289124	1292.495850	3909.344727	1968.325439	25.826084
743.607788	1253.812012	3795.568604	1875.029175	24.440466
743.926453	1324.353149	3763.711426	1897.784302	23.507458
744.245056	1219.679199	3843.354736	1888.682251	25.498695
744.563599	1237.883301	3884.313965	1809.039063	21.582117
744.882141	1281.118164	3763.711426	1831.794189	22.181484
745.200500	1260.638550	3634.006836	1752.151001	20.709490
745.518860	1278.842651	3634.006836	1802.212524	22.222225
745.837219	1251.536499	3661.312988	1877.304688	25.967896
746.155518	1276.567139	3586.220703	1861.375977	25.320198
746.473755	1312.975464	3654.486328	1868.202637	23.712347
746.791992	1283.393677	3588.496338	1829.518677	23.692005
747.110107	1292.495850	3474.720215	1838.620850	25.026070
747.428162	1301.597900	3568.016602	1786.283813	21.385542
747.746216	1285.669312	3608.976074	1843.171875	23.996082
748.064148	1281.118164	3588.496338	1852.273926	24.753452
748.382080	1176.444214	3686.343750	1829.518677	26.019945
748.700073	1242.434326	3693.170166	1827.243164	23.862581
749.017822	1276.567139	3629.455566	1822.692139	23.210833
749.335632	1319.802124	3672.690674	1763.528564	18.858795
749.653320	1294.771362	3654.486328	1845.447388	23.336550
749.971008	1306.148926	3629.455566	1877.304688	24.583744
750.288696	1274.291626	3704.547852	1856.824951	23.970036
750.606262	1278.842651	3813.772949	1909.161987	24.865353
750.923828	1283.393677	3661.312988	1881.855713	25.167465
751.241272	1246.985352	3629.455566	1897.784302	27.316143
751.558716	1260.638550	3699.996826	1877.304688	25.279850
751.876038	1249.260864	3590.771729	1854.549438	25.850344
752.193481	1306.148926	3636.282227	1900.059814	25.488279
752.510681	1281.118164	3615.802490	1870.478149	25.243670
752.827942	1269.740601	3536.159424	1847.722900	25.502007
753.145081	1246.985352	3659.037354	1875.029175	26.037741
753.462219	1285.669312	3608.976074	1740.773438	19.588638
753.779297	1328.904175	3574.843262	1849.998413	23.201620
754.096375	1340.281738	3634.006836	1838.620850	21.726192
754.413330	1203.750488	3570.292236	1872.753662	28.269232
754.730286	1237.883301	3461.067139	1845.447388	27.328558
755.047119	1269.740601	3583.945313	1779.457275	22.025566
755.363892	1276.567139	3454.240479	1815.865601	24.764893
755.680725	1287.944824	3554.363525	1831.794189	23.995979
755.997498	1276.567139	3360.944336	1877.304688	28.820961
756.314148	1260.638550	3438.312012	1786.283813	24.137930
756.630737	1235.607788	3411.005615	1875.029175	29.393307
756.947327	1290.220337	3577.118652	1770.355225	20.995024
757.263855	1301.597900	3522.506104	1761.253052	20.696720
757.580261	1242.434326	3385.974854	1752.151001	23.779194
757.896729	1333.455200	3463.342773	1824.967651	23.076920
758.213074	1215.128052	3431.485352	1918.264038	31.724846
758.529419	1269.740601	3506.577637	1838.620850	25.432352
758.845642	1290.220337	3536.159424	1886.406738	26.545084
759.161865	1292.495850	3554.363525	1856.824951	24.949696
759.478149	1310.699951	3608.976074	1815.865601	21.980198
759.794189	1276.567139	3558.914551	1713.467163	19.142572
760.110229	1246.985352	3595.322754	1836.345337	25.096905
760.426270	1208.301514	3604.425049	1906.886475	29.154797
760.742249	1269.740601	3649.935303	1822.692139	23.231356
761.058105	1290.220337	3652.210938	1879.580200	24.951828
761.374023	1199.199463	3652.210938	1879.580200	27.736549
761.689819	1310.699951	3561.189941	1875.029175	25.075838
762.005554	1281.118164	3581.669678	1900.059814	26.904055
762.321289	1299.322388	3563.465576	1863.651489	24.924622
762.636902	1240.158813	3659.037354	1888.682251	26.810915
762.952515	1278.842651	3645.384277	1861.375977	24.615385
763.268127	1299.322388	3715.925537	1961.498901	27.401129
763.583618	1344.832764	3775.089111	1961.498901	25.374531
763.899048	1256.087524	4125.519043	1956.947876	24.425058
764.214478	1287.944824	4398.581543	2066.172852	25.018288
764.529785	1276.567139	4728.532227	2189.051025	26.433752
764.845093	1360.761475	4994.768066	2207.255127	23.293674
765.160400	1297.046875	5001.594727	2209.530762	24.631451
765.475586	1269.740601	4885.542969	2191.326416	25.487728
765.790771	1331.179688	4701.226074	2184.500000	25.320728
766.105835	1349.383789	4514.633301	2066.172852	22.645578
766.420837	1356.210449	4332.591797	2011.560425	22.018347
766.735840	1303.873413	4266.601563	2011.560425	23.886332
767.050842	1322.077637	4105.039551	1972.876587	23.385118
767.365662	1260.638550	3886.589600	1977.427612	27.296360
767.680542	1292.495850	3872.936523	1822.692139	20.546734
767.995300	1235.607788	3795.568604	1913.713013	26.488890
768.309998	1260.638550	3645.384277	1888.682251	26.335878
768.624817	1190.097412	3768.262451	1970.601074	30.273611
768.939392	1267.465088	3579.394287	1824.967651	24.114172
769.254028	1322.077637	3549.812500	1804.488037	21.654749
769.568481	1342.557251	3586.220703	1861.375977	23.123732
769.882935	1312.975464	3467.893799	1843.171875	24.604013
770.197388	1240.158813	3404.179199	1943.294800	32.492111
770.511841	1260.638550	3399.628174	1829.518677	26.595739
770.826172	1299.322388	3249.443604	1843.171875	27.887983
771.140442	1306.148926	3304.056152	1754.426514	22.437357
771.454651	1262.914063	3235.790527	1781.732788	26.297579
771.768860	1212.852539	3258.545898	1724.844727	25.027807
772.082886	1381.241089	3213.035400	1720.293701	18.509317
772.397034	1292.495850	3224.413086	1765.804199	24.499411
772.711060	1299.322388	3313.158203	1697.538574	19.774015
773.025024	1272.016113	3263.096924	1736.222412	23.314287
773.338928	1226.505737	3258.545898	1795.385864	27.995516
773.652771	1228.781250	3162.973877	1865.927002	32.941174
773.966614	1290.220337	3103.810303	1802.212524	28.230867
774.280457	1283.393677	3144.769775	1740.773438	24.572130
774.594116	1274.291626	3169.800537	1756.702026	25.450178
774.907776	1237.883301	3151.596191	1763.528564	27.467300
775.221375	1253.812012	3167.524902	1674.783325	21.997622
775.534912	1310.699951	3185.729004	1670.232300	19.174761
775.848450	1274.291626	3112.912354	1702.089600	23.267332
776.161926	1267.465088	3078.779541	1743.048950	26.256283
776.475342	1299.322388	3101.534912	1729.395752	23.863632
776.788696	1322.077637	3144.769775	1756.702026	23.845190
777.101990	1274.291626	3005.962891	1667.956787	22.733250
777.415283	1301.597900	2987.758789	1752.151001	26.720648
777.728516	1310.699951	3071.953125	1692.987427	21.705425
778.041626	1303.873413	2958.177002	1649.752563	20.907841
778.354736	1262.914063	3005.962891	1711.191650	25.718018
778.667725	1317.526489	3053.749023	1729.395752	23.722147
778.980774	1333.455200	2960.452637	1772.630737	26.993008
779.293640	1210.577026	2974.105713	1683.885376	26.838711
779.606567	1256.087524	2994.585449	1674.783325	24.083767
779.919434	1324.353149	2978.656738	1588.313477	15.955978
780.232239	1333.455200	2901.289063	1747.599976	26.415092
780.544983	1251.536499	2912.666504	1724.844727	28.493147
780.857666	1201.474976	2958.177002	1692.987427	27.979273
781.170227	1233.332275	2958.177002	1765.804199	30.870716
781.482849	1267.465088	2919.493164	1695.262939	25.895313
781.795410	1237.883301	2955.901611	1738.497925	29.139074
782.107910	1297.046875	2792.063965	1704.365112	27.245056
782.420288	1256.087524	2887.635986	1633.823975	23.152021
782.732666	1283.393677	2794.339600	1667.956787	25.451811
783.044983	1265.189575	2730.625000	1708.916138	30.279503
783.357300	1240.158813	2860.329590	1636.099487	24.438206
783.669495	1258.363037	2744.278076	1581.486938	21.745787
783.981689	1281.118164	2787.512939	1633.823975	23.413902
784.293762	1267.465088	2757.931152	1549.629639	18.931297
784.605835	1276.567139	2835.298828	1583.762451	19.708031
784.917908	1258.363037	2764.757813	1652.028076	26.132927
785.229858	1251.536499	2767.033203	1567.833862	20.870871
785.541748	1253.812012	2778.410889	1638.375000	25.223879
785.853577	1285.669312	2757.931152	1620.170776	22.720243
786.165405	1319.802124	2662.359375	1690.711914	27.627111
786.477173	1301.597900	2701.043213	1586.037964	20.325201
786.788879	1260.638550	2685.114502	1624.721802	25.559101
787.100525	1242.434326	2671.461426	1679.334351	30.573250
787.412109	1308.424438	2644.155273	1604.242188	22.146509
787.723694	1242.434326	2678.288086	1629.272949	26.941366
788.035156	1262.914063	2666.910400	1645.201538	27.228523
788.346558	1272.016113	2810.268311	1697.538574	27.662724
788.658081	1260.638550	2798.890625	1615.619751	23.076920
788.969360	1292.495850	2739.727051	1704.365112	28.459120
789.280640	1258.363037	2780.686523	1626.997314	24.215239
789.591919	1331.179688	2869.431641	1629.272949	19.378702
789.903076	1310.699951	2926.319824	1677.058838	22.676058
790.214172	1292.495850	2883.084961	1683.885376	24.606577
790.525269	1301.597900	2812.543701	1688.436401	25.602407
790.836365	1276.567139	2876.258301	1702.089600	26.600288
791.147339	1269.740601	2780.686523	1661.130127	25.903608
791.458191	1315.250977	2694.216553	1617.895264	21.947197
791.769104	1274.291626	2830.747803	1597.415649	20.760239
792.079895	1324.353149	2598.644775	1670.232300	27.142857
792.390686	1262.914063	2671.461426	1722.569214	32.633278
792.701416	1331.179688	2655.532715	1570.109375	18.041239
793.012085	1251.536499	2646.430664	1549.629639	21.370306
793.322693	1240.158813	2694.216553	1545.078613	20.970268
793.633240	1251.536499	2623.675537	1561.007324	22.553898
793.943787	1251.536499	2603.195801	1654.303589	29.797974
794.254272	1217.403687	2628.226563	1636.099487	29.677418
794.564636	1260.638550	2605.471436	1576.935913	23.519455
794.875000	1278.842651	2575.889648	1642.926025	28.070175
795.185303	1262.914063	2619.124512	1629.272949	27.013424
795.495544	1253.812012	2596.369141	1611.068726	26.610168
795.805786	1306.148926	2596.369141	1649.752563	26.631395
796.115906	1376.690063	2612.297852	1586.037964	16.942909
796.426025	1249.260864	2553.134277	1579.211426	25.305414
796.736023	1269.740601	2673.737061	1692.987427	30.145861
797.045959	1262.914063	2739.727051	1606.517700	23.266563
797.355896	1276.567139	2646.430664	1601.966675	23.754158
797.665833	1262.914063	2694.216553	1611.068726	24.324324
797.975708	1285.669312	2773.859863	1617.895264	22.324154
798.285461	1206.026001	2812.543701	1586.037964	23.654390
798.595154	1233.332275	2671.461426	1647.477051	28.797468
798.904846	1262.914063	2644.155273	1633.823975	26.853376
799.214478	1335.730713	2607.746826	1638.375000	23.792488
799.524109	1287.944824	2612.297852	1579.211426	21.993124
799.833557	1262.914063	2694.216553	1542.803101	19.554850
800.143005	1315.250977	2623.675537	1592.864502	21.217388
800.452393	1240.158813	2605.471436	1588.313477	25.499996
800.761780	1274.291626	2646.430664	1581.486938	22.388060
801.071106	1272.016113	2455.286865	1617.895264	29.230770
801.380371	1308.424438	2455.286865	1636.099487	28.571434
801.689575	1319.802124	2537.205811	1561.007324	19.813084
801.998718	1244.709839	2509.899414	1576.935913	26.258995
802.307800	1299.322388	2427.980713	1567.833862	23.790323
802.616882	1312.975464	2448.460449	1510.945801	17.434870
802.925903	1342.557251	2603.195801	1558.731689	17.148010
803.234863	1253.812012	2359.715088	1665.681274	37.242798
803.543701	1274.291626	2387.021240	1574.660400	26.993870
803.852539	1228.781250	2484.868652	1579.211426	27.898550
804.161316	1258.363037	2484.868652	1545.078613	23.376621
804.470032	1317.526489	2348.337402	1583.762451	25.827818
804.778809	1256.087524	2425.705078	1529.150024	23.346306
805.087341	1228.781250	2407.500977	1551.905151	27.413124
805.395935	1244.709839	2375.643799	1474.537476	20.321932
805.704468	1258.363037	2446.184814	1608.793213	29.501915
806.012939	1237.883301	2389.296875	1583.762451	30.039524
806.321350	1299.322388	2455.286865	1592.864502	25.393696
806.629761	1258.363037	2489.419678	1599.691162	27.726435
806.938049	1326.628662	2466.664551	1570.109375	21.357285
807.246277	1299.322388	2423.429688	1533.701050	20.850204
807.554504	1294.771362	2500.797363	1576.935913	23.396225
807.862671	1251.536499	2500.797363	1561.007324	24.772314
808.170715	1260.638550	2357.439453	1531.425537	24.688801
808.478821	1262.914063	2400.674561	1540.527588	24.399998
808.786804	1260.638550	2393.847900	1572.384888	27.510038
809.094727	1274.291626	2355.164063	1513.221313	22.105263
809.402649	1274.291626	2455.286865	1556.456177	23.892099
809.710510	1253.812012	2398.398926	1547.354126	25.646118
810.018311	1385.792114	2466.664551	1551.905151	15.368422
810.326050	1256.087524	2409.776611	1570.109375	27.218933
810.633667	1258.363037	2393.847900	1495.017212	20.841684
810.941345	1242.434326	2368.817139	1488.190552	21.818180
811.248901	1246.985352	2307.378174	1458.608887	19.957088
811.556396	1267.465088	2339.235352	1547.354126	26.114649
811.863892	1283.393677	2334.684326	1606.517700	30.735937
812.171326	1347.108276	2316.480225	1579.211426	23.943663
812.478699	1308.424438	2280.071777	1545.078613	24.355974
812.786011	1228.781250	2250.489990	1476.812988	24.276169
813.093262	1297.046875	2259.592041	1570.109375	28.368799
813.400391	1235.607788	2302.827148	1522.323364	26.865665
813.707642	1331.179688	2216.357178	1549.629639	24.678661
814.014709	1190.097412	2239.112549	1456.333252	25.379599
814.321716	1338.006226	2182.224365	1522.323364	21.832880
814.628723	1249.260864	2327.857666	1451.782227	18.776373
814.935669	1283.393677	2232.285889	1538.252075	26.858519
815.242554	1310.699951	2223.183838	1547.354126	25.935162
815.549438	1274.291626	2236.836914	1447.231201	17.966902
815.856201	1262.914063	2277.796387	1515.496826	24.887886
816.162964	1322.077637	2286.898438	1515.496826	20.047161
816.469604	1206.026001	2275.520752	1538.252075	31.063833
816.776184	1294.771362	2261.867676	1542.803101	25.647057
817.082825	1251.536499	2357.439453	1640.650513	35.185184
817.389343	1212.852539	2346.062012	1510.945801	26.305222
817.695801	1347.108276	2309.653564	1531.425537	19.148945
818.002197	1331.179688	2377.919189	1597.415649	25.434788
818.308533	1319.802124	2311.929199	1454.057739	13.532099
818.614868	1315.250977	2275.520752	1533.701050	22.748823
818.921143	1303.873413	2352.888428	1547.354126	23.210413
819.227356	1297.046875	2225.459229	1558.731689	28.186270
819.533447	1262.914063	2332.408936	1526.874512	24.680853
819.839539	1326.628662	2230.010498	1595.140137	29.722921
820.145569	1281.118164	2409.776611	1595.140137	27.822586
820.451538	1212.852539	2514.450439	1601.966675	29.895111
820.757568	1315.250977	2653.257324	1586.037964	20.238094
821.063416	1226.505737	2641.879639	1733.946899	35.852093
821.369263	1269.740601	2796.614990	1697.538574	28.017889
821.675049	1297.046875	2871.707275	1686.160889	24.710979
821.980713	1265.189575	3017.340576	1720.293701	25.974024
822.286438	1301.597900	3226.688477	1865.927002	29.314419
822.592102	1299.322388	3754.609375	2013.835938	29.101019
822.897583	1310.699951	5192.738281	2439.358398	29.073862
823.203125	1242.434326	7254.360352	2910.391113	27.744135
823.508545	1322.077637	9429.757813	3472.444824	26.522594
823.813965	1258.363037	10540.211914	3829.701416	27.702869
824.119263	1276.567139	10035.046875	3636.282227	26.942062
824.424622	1244.709839	8651.530273	3383.699463	28.878651
824.729858	1292.495850	7363.585449	2958.177002	27.436279
825.035095	1308.424438	6391.937988	2776.135498	28.871981
825.340149	1237.883301	5595.505859	2537.205811	29.817234
825.645264	1308.424438	5106.268555	2316.480225	26.542841
825.950256	1283.393677	4642.062500	2202.704102	27.371273
826.255310	1267.465088	4337.142578	2052.519775	25.574501
826.560242	1308.424438	4200.611328	2143.540527	28.874899
826.865112	1351.659302	3918.446777	2032.040039	26.507092
827.169922	1265.189575	3820.599365	1995.631714	28.584150
827.474670	1333.455200	3677.241699	1902.335449	24.271845
827.779419	1290.220337	4009.467773	1991.080688	25.774055
828.084045	1287.944824	4516.908691	2168.571289	27.272726
828.388672	1356.210449	5024.350098	2330.133301	26.550867
828.693176	1315.250977	5231.422363	2293.724854	24.985472
828.997681	1240.158813	4683.021973	2257.316650	29.543951
829.302124	1210.577026	4346.244629	2095.754639	28.229321
829.606567	1244.709839	3888.864990	2016.111450	29.173840
829.910828	1242.434326	3495.199951	1970.601074	32.323235
830.215149	1287.944824	3313.158203	1797.661377	25.168535
830.519348	1308.424438	3035.544678	1786.283813	27.667986
830.823547	1299.322388	3028.718262	1745.324463	25.789473
831.127686	1240.158813	2848.952148	1640.650513	24.893919
831.431763	1258.363037	2650.981689	1631.548462	26.797388
831.735779	1290.220337	2525.828125	1695.262939	32.780838
832.039734	1299.322388	2559.960938	1601.966675	24.007221
832.343628	1246.985352	2425.705078	1551.905151	25.868729
832.647461	1212.852539	2425.705078	1615.619751	33.208260
832.951233	1272.016113	2402.949951	1529.150024	22.736423
833.255127	1251.536499	2371.092773	1506.394775	22.764221
833.558777	1242.434326	2468.940186	1674.783325	35.250462
833.862366	1260.638550	2537.205811	1567.833862	24.064169
834.165955	1246.985352	2680.563477	1738.497925	34.285721
834.469482	1349.383789	3076.504150	1656.579102	17.786560
834.773010	1312.975464	3347.291016	1863.651489	27.069351
835.076416	1224.230225	3722.751953	1909.161987	27.413481
835.379822	1235.607788	3652.210938	1981.978638	30.885124
835.683105	1299.322388	3542.985840	1902.335449	26.876268
835.986389	1244.709839	3274.474365	1824.967651	28.587444
836.289612	1251.536499	3124.290039	1818.141113	30.255161
836.592773	1253.812012	2930.870850	1688.436401	25.915871
836.895874	1253.812012	2755.655762	1720.293701	31.060600
837.198914	1256.087524	2562.236328	1652.028076	30.313587
837.501892	1317.526489	2498.521729	1622.446289	25.818884
837.804871	1349.383789	2423.429688	1547.354126	18.432205
838.107666	1249.260864	2450.735840	1554.180664	25.378790
838.410583	1299.322388	2355.164063	1633.823975	31.681036
838.713379	1287.944824	2245.938965	1520.047852	24.228022
839.016052	1231.056763	2220.908203	1531.425537	30.344833
839.318787	1294.771362	2041.142212	1435.853638	18.902437
839.621338	1269.740601	2084.376953	1504.119263	28.770956
839.923889	1258.363037	2068.448486	1481.364014	27.528080
840.226440	1249.260864	2123.060791	1524.598877	31.510418
840.528931	1226.505737	2093.479248	1460.884399	27.034121
840.831299	1196.923950	2191.326416	1472.261963	27.688789
841.133606	1278.842651	2311.929199	1499.568237	21.365643
841.435913	1251.536499	2318.755615	1545.078613	27.505327
841.738220	1303.873413	2341.510986	1576.935913	26.315788
842.040405	1249.260864	2154.918213	1497.292725	27.386942
842.342529	1338.006226	2143.540527	1481.364014	17.796608
842.644592	1324.353149	2057.070801	1506.394775	24.844717
842.946594	1258.363037	2034.315552	1449.506714	24.633425
843.248596	1251.536499	2027.489014	1397.169800	18.768326
843.550598	1276.567139	1986.529663	1415.373901	19.551281
843.852478	1258.363037	1918.264038	1431.302612	26.206898
844.154236	1303.873413	1904.610962	1385.792114	13.636354
844.455994	1251.536499	1893.233276	1433.578125	28.368792
844.757690	1294.771362	1843.171875	1433.578125	25.311203
845.059326	1378.965576	1827.243164	1433.578125	12.182753
845.360962	1322.077637	1868.202637	1422.200562	18.333334
845.662476	1312.975464	1752.151001	1465.435425	34.715038
845.963989	1274.291626	1758.977539	1415.373901	29.107979
846.265381	1233.332275	1811.314575	1431.302612	34.251972
846.566772	1292.495850	1859.100464	1474.537476	32.128510
846.868042	1176.444214	1840.896362	1410.822876	35.273972
847.169373	1240.158813	1845.447388	1447.231201	34.210522
847.470581	1265.189575	1840.896362	1385.792114	20.948605
847.771729	1276.567139	1856.824951	1372.139038	16.470592
848.072815	1272.016113	1754.426514	1388.067749	24.056620
848.373901	1281.118164	1733.946899	1433.578125	33.668350
848.674866	1301.597900	1761.253052	1490.466064	41.089100
848.975891	1256.087524	1633.823975	1413.098389	41.566246
849.276794	1287.944824	1706.640625	1306.148926	4.347811
849.577637	1274.291626	1770.355225	1331.179688	11.467896
849.878357	1317.526489	1756.702026	1378.965576	13.989642
850.179077	1365.312500	1809.039063	1306.148926	-13.333341
850.479736	1231.056763	1779.457275	1388.067749	28.630714
850.780396	1274.291626	1706.640625	1331.179688	13.157903
851.080994	1260.638550	1708.916138	1363.036987	22.842640
851.381470	1244.709839	1727.120239	1363.036987	24.528316
851.681946	1285.669312	1788.559326	1413.098389	25.339354
851.982361	1297.046875	1631.548462	1372.139038	22.448971
852.282715	1301.597900	1688.436401	1328.904175	7.058831
852.583008	1235.607788	1756.702026	1344.832764	20.960695
852.883240	1267.465088	1720.293701	1353.934937	19.095491
853.183411	1242.434326	1608.793213	1372.139038	35.403728
853.483521	1324.353149	1713.467163	1347.108276	5.847933
853.783630	1249.260864	1718.018188	1376.690063	27.184471
854.083679	1290.220337	1663.405762	1408.547363	31.707300
854.383667	1281.118164	1711.191650	1344.832764	14.814816
854.683533	1260.638550	1674.783325	1367.588013	25.824173
854.983337	1278.842651	1702.089600	1397.169800	27.957001
855.283203	1256.087524	1749.875488	1367.588013	22.580641
855.582886	1287.944824	1633.823975	1399.445313	32.236835
855.882629	1312.975464	1620.170776	1333.455200	6.666683
856.182312	1315.250977	1706.640625	1353.934937	9.883746
856.481873	1249.260864	1649.752563	1367.588013	29.545469
856.781372	1331.179688	1640.650513	1415.373901	27.205864
857.080872	1349.383789	1665.681274	1429.027100	25.179874
857.380310	1306.148926	1654.303589	1317.526489	3.267962
857.679688	1253.812012	1702.089600	1403.996338	33.502529
857.979004	1260.638550	1713.467163	1338.006226	17.085421
858.278259	1258.363037	1745.324463	1458.608887	41.121502
858.577454	1256.087524	1620.170776	1394.894287	38.125008
858.876648	1338.006226	1679.334351	1365.312500	8.000008
859.175720	1292.495850	1749.875488	1372.139038	17.412928
859.474792	1251.536499	1672.507813	1363.036987	26.486481
859.773743	1217.403687	1724.844727	1372.139038	30.493267
860.072693	1276.567139	1647.477051	1338.006226	16.564423
860.371521	1308.424438	1652.028076	1392.618774	24.503330
860.670349	1244.709839	1654.303589	1310.699951	16.111113
860.969116	1317.526489	1686.160889	1342.557251	6.790132
861.267883	1272.016113	1554.180664	1367.588013	33.870979
861.566589	1269.740601	1706.640625	1306.148926	8.333331
861.865112	1297.046875	1656.579102	1272.016113	-6.962036
862.163635	1294.771362	1642.926025	1363.036987	19.607845
862.462158	1315.250977	1649.752563	1326.628662	3.401385
862.760620	1249.260864	1670.232300	1376.690063	30.270271
863.059021	1285.669312	1597.415649	1333.455200	15.328452
863.357361	1262.914063	1688.436401	1376.690063	26.737963
863.655640	1301.597900	1677.058838	1365.312500	16.969702
863.953857	1260.638550	1549.629639	1401.720825	48.818901
864.251953	1212.852539	1661.130127	1326.628662	25.380730
864.550110	1221.954712	1617.895264	1399.445313	44.827587
864.848206	1310.699951	1613.344238	1390.343262	26.315815
865.146179	1281.118164	1626.997314	1383.516602	29.605265
865.444092	1278.842651	1686.160889	1319.802124	10.055890
865.741943	1251.536499	1633.823975	1378.965576	33.333313
866.039795	1276.567139	1729.395752	1403.996338	28.140713
866.337646	1226.505737	1647.477051	1433.578125	49.189194
866.635376	1253.812012	1677.058838	1278.842651	5.913958
866.933044	1233.332275	1695.262939	1333.455200	21.674881
867.230652	1285.669312	1622.446289	1310.699951	7.432408
867.528198	1283.393677	1688.436401	1301.597900	4.494396
867.825745	1262.914063	1599.691162	1331.179688	20.270269
868.123230	1287.944824	1638.375000	1335.730713	13.636351
868.420593	1274.291626	1640.650513	1410.822876	37.267078
868.717896	1276.567139	1658.854614	1290.220337	3.571448
869.015198	1265.189575	1649.752563	1265.189575	0.000000
869.312439	1285.669312	1620.170776	1344.832764	17.687054
869.609619	1306.148926	1631.548462	1360.761475	16.783228
869.906738	1249.260864	1718.018188	1369.863525	25.728167
870.203796	1233.332275	1758.977539	1344.832764	21.212116
870.500854	1267.465088	1640.650513	1226.505737	-10.975603
870.797791	1297.046875	1611.068726	1365.312500	21.739132
871.094666	1251.536499	1633.823975	1426.751587	45.833332
871.391602	1301.597900	1652.028076	1438.129150	38.961044
871.688293	1294.771362	1681.609863	1415.373901	31.176456
871.985107	1224.230225	1686.160889	1417.649414	41.871910
872.281738	1301.597900	1681.609863	1438.129150	35.928146
872.578369	1340.281738	1652.028076	1431.302612	29.197094
872.874939	1342.557251	1665.681274	1422.200562	24.647907
873.171509	1240.158813	1606.517700	1403.996338	44.720501
873.467957	1290.220337	1674.783325	1347.108276	14.792879
873.764343	1344.832764	1597.415649	1356.210449	4.504535
874.060669	1235.607788	1613.344238	1426.751587	50.602425
874.356995	1322.077637	1692.987427	1308.424438	-3.681002
874.653198	1240.158813	1711.191650	1363.036987	26.086966
874.949463	1267.465088	1636.099487	1406.271851	37.654316
875.245544	1221.954712	1620.170776	1410.822876	47.428566
875.541626	1246.985352	1688.436401	1358.485962	25.257751
875.837646	1201.474976	1667.956787	1351.659302	32.195110
876.133606	1312.975464	1692.987427	1390.343262	20.359306
876.429565	1338.006226	1649.752563	1381.241089	13.868604
876.725403	1269.740601	1633.823975	1347.108276	21.249989
877.021179	1294.771362	1667.956787	1353.934937	15.853667
877.316956	1244.709839	1615.619751	1326.628662	22.085909
877.612610	1301.597900	1681.609863	1449.506714	38.922146
877.908203	1208.301514	1647.477051	1372.139038	37.305702
878.203857	1217.403687	1642.926025	1388.067749	40.106956
878.499390	1294.771362	1695.262939	1403.996338	27.272728
878.794800	1347.108276	1667.956787	1408.547363	19.148939
879.090271	1235.607788	1649.752563	1397.169800	39.010998
879.385559	1272.016113	1736.222412	1353.934937	17.647072
879.680847	1192.372925	1715.742676	1365.312500	33.043480
879.976196	1285.669312	1708.916138	1399.445313	26.881714
880.271301	1278.842651	1845.447388	1431.302612	26.907640
880.566467	1265.189575	1838.620850	1479.088501	37.301579
880.861572	1215.128052	1847.722900	1415.373901	31.654676
881.156555	1322.077637	1975.152100	1458.608887	20.905924
881.451477	1283.393677	2227.734863	1526.874512	25.783142
881.746460	1226.505737	2509.899414	1586.037964	28.014181
882.041321	1326.628662	3169.800537	1752.151001	23.086416
882.336121	1274.291626	4039.049316	1947.845825	24.362141
882.630798	1283.393677	4569.245605	2109.407715	25.138504
882.925537	1246.985352	4821.828613	2227.734863	27.434755
883.220215	1306.148926	4651.164551	2136.714111	24.829935
883.514771	1215.128052	4309.836426	2173.122314	30.955881
883.809326	1299.322388	3973.059326	1963.774414	24.851063
884.103760	1285.669312	3643.108887	2018.386963	31.081079
884.398132	1260.638550	3552.087891	1918.264038	28.699108
884.692505	1226.505737	3192.555664	1779.457275	28.125000
884.986816	1278.842651	3067.402100	1834.069824	31.043261
885.281067	1312.975464	3065.126465	1702.089600	22.207796
885.575256	1251.536499	2826.196777	1713.467163	29.335258
885.869385	1328.904175	2562.236328	1636.099487	24.907751
886.163452	1301.597900	2380.194824	1613.344238	28.902950
886.457458	1253.812012	2211.806152	1510.945801	26.840853
886.751465	1281.118164	2179.948975	1513.221313	25.822784
887.045410	1283.393677	2032.040039	1431.302612	19.756849
887.339233	1240.158813	2082.101563	1454.057739	25.405401
887.632996	1221.954712	1975.152100	1469.986450	32.930511
887.926758	1297.046875	1927.366089	1422.200562	19.855604
888.220398	1274.291626	1802.212524	1469.986450	37.068966
888.514099	1269.740601	1784.008301	1413.098389	27.876102
888.807678	1294.771362	1774.906250	1383.516602	18.483397
889.101196	1299.322388	1768.079712	1376.690063	16.504847
889.394653	1324.353149	1715.742676	1467.710938	36.627907
889.688049	1251.536499	1588.313477	1365.312500	33.783783
889.981384	1272.016113	1736.222412	1367.588013	20.588238
890.274719	1310.699951	1622.446289	1383.516602	23.357660
890.567932	1256.087524	1679.334351	1353.934937	23.118286
>>>>>End Processed Spectral Data<<<<<
