Jaz Data File
++++++++++++++++++++++++++++++++++++
Date: Wed Feb 07 06:51:38 2024
User: jaz
Dark Spectrum Present: Yes
Reference Spectrum Present: Yes
Processed Spectrum Present: Yes
Spectrometers: JAZA3692
Integration Time (usec): 42900 (JAZA3692)
Spectra Averaged: 1 (JAZA3692)
Boxcar Smoothing: 0 (JAZA3692)
Correct for Electrical Dark: No (JAZA3692)
Strobe/Lamp Enabled: Yes (JAZA3692)
Correct for Detector Non-linearity: No (JAZA3692)
Correct for Stray Light: No (JAZA3692)
Number of Pixels in Processed Spectrum: 2048
>>>>>Begin Processed Spectral Data<<<<<
W	D	R	S	P
190.244385	0.000000	0.000000	0.000000	0.000000
190.627136	0.000000	0.000000	0.000000	0.000000
191.009842	907.932800	948.892151	907.932800	0.000000
191.392532	985.300537	1028.535400	930.687988	-126.315994
191.775177	917.034912	967.096313	980.749451	127.272781
192.157791	989.851563	903.381775	926.136963	73.684235
192.540390	992.127075	917.034912	896.555176	127.272804
192.922943	905.657288	1001.229126	951.167725	47.619087
193.305481	1003.504700	1035.361938	960.269775	-135.714600
193.687958	1010.331238	1023.984375	912.483826	-716.666138
194.070419	948.892151	1019.433350	928.412476	-29.032219
194.452866	1064.943726	928.412476	973.922913	66.666649
194.835251	1030.810913	1012.606750	914.759338	637.500183
195.217621	1008.055725	976.198425	898.830688	342.857178
195.599960	1039.912964	1003.504700	985.300537	150.000076
195.982254	1080.872437	976.198425	969.371887	106.521713
196.364517	1033.086426	971.647400	955.718750	125.925949
196.746750	962.545288	1003.504700	978.473938	38.888863
197.128952	1014.882263	994.402588	1012.606750	11.111078
197.511139	1067.219238	1001.229126	937.514587	196.551651
197.893280	992.127075	1010.331238	1039.912964	262.499786
198.275391	998.953613	935.239075	1014.882263	-25.000025
198.657471	1001.229126	1003.504700	942.065613	-2599.938232
199.039520	1049.015137	967.096313	1021.708862	33.333332
199.421539	948.892151	1037.637451	1069.494751	135.897446
199.803513	967.096313	973.922913	951.167725	-233.331253
200.185471	1001.229126	948.892151	1008.055725	-13.043550
200.567383	1010.331238	1010.331238	996.678101	0.000000
200.949265	989.851563	989.851563	996.678101	0.000000
201.331131	930.687988	1044.463989	964.820801	30.000011
201.712967	946.616638	1037.637451	989.851563	47.500042
202.094742	976.198425	1030.810913	923.861450	-95.833344
202.476517	980.749451	1026.259888	939.790100	-89.999908
202.858231	957.994263	1055.841675	953.443237	-4.651145
203.239944	969.371887	994.402588	1051.290649	327.273163
203.621582	955.718750	935.239075	957.994263	-11.111078
204.003235	937.514587	969.371887	960.269775	71.428490
204.384827	935.239075	1019.433350	912.483826	-27.027075
204.766388	937.514587	1017.157776	1023.984375	108.571480
205.147934	985.300537	1039.912964	1033.086426	87.500031
205.529449	1021.708862	953.443237	1014.882263	10.000053
205.910904	976.198425	1044.463989	939.790100	-53.333370
206.292343	948.892151	1019.433350	948.892151	0.000000
206.673767	930.687988	992.127075	942.065613	18.518545
207.055115	998.953613	980.749451	937.514587	337.499878
207.436462	1010.331238	1012.606750	905.657288	-4600.016113
207.817780	1014.882263	1069.494751	955.718750	-108.333305
208.199051	967.096313	976.198425	973.922913	75.000168
208.580307	994.402588	983.024963	978.473938	139.999786
208.961517	928.412476	971.647400	939.790100	26.315819
209.342712	983.024963	987.576050	873.799988	-2399.975830
209.723846	976.198425	989.851563	932.963501	-316.666595
210.104965	1096.801025	1069.494751	953.443237	524.999451
210.486069	955.718750	1074.045776	1001.229126	38.461521
210.867111	985.300537	1044.463989	969.371887	-26.923124
211.248123	962.545288	1046.739624	978.473938	18.918909
211.629120	962.545288	998.953613	951.167725	-31.249895
212.010071	994.402588	1044.463989	955.718750	-77.272781
212.390991	951.167725	1026.259888	987.576050	48.484852
212.771881	983.024963	923.861450	980.749451	3.846142
213.152756	962.545288	992.127075	912.483826	-169.230682
213.533569	962.545288	944.341125	1012.606750	-275.000092
213.914368	930.687988	960.269775	930.687988	0.000000
214.295135	989.851563	985.300537	935.239075	1200.004028
214.675858	989.851563	928.412476	960.269775	48.148155
215.056549	978.473938	992.127075	983.024963	33.333183
215.437225	1019.433350	978.473938	1008.055725	27.777803
215.817841	978.473938	1071.770264	937.514587	-43.902428
216.198441	1010.331238	985.300537	917.034912	372.727570
216.579025	928.412476	1028.535400	983.024963	54.545437
216.959549	1053.566162	1017.157776	951.167725	281.249603
217.340057	973.922913	1012.606750	1005.780212	82.352997
217.720535	1003.504700	1008.055725	907.932800	-2100.008057
218.100967	1003.504700	1001.229126	910.208313	4099.906250
218.481369	994.402588	987.576050	973.922913	300.000885
218.861740	1003.504700	1067.219238	971.647400	-50.000050
219.242065	955.718750	978.473938	869.248962	-380.000336
219.622391	969.371887	1019.433350	926.136963	-86.363686
220.002670	994.402588	1012.606750	983.024963	-62.500126
220.382919	976.198425	962.545288	937.514587	283.332947
220.763123	932.963501	996.678101	944.341125	17.857170
221.143295	937.514587	1014.882263	983.024963	58.823502
221.523453	992.127075	1005.780212	985.300537	-49.999775
221.903549	957.994263	1003.504700	960.269775	4.999980
222.283630	1046.739624	1023.984375	1035.361938	50.000267
222.663696	976.198425	1035.361938	901.106262	-126.923096
223.043701	923.861450	978.473938	964.820801	74.999969
223.423676	978.473938	1033.086426	980.749451	4.166653
223.803635	967.096313	1012.606750	996.678101	65.000008
224.183548	928.412476	996.678101	930.687988	3.333321
224.563431	962.545288	1014.882263	896.555176	-126.086983
224.943283	946.616638	1008.055725	948.892151	3.703689
225.323105	937.514587	1058.117188	973.922913	30.188673
225.702881	1008.055725	1033.086426	976.198425	-127.272903
226.082642	919.310425	1026.259888	1003.504700	78.723419
226.462357	1017.157776	1035.361938	983.024963	-187.500046
226.842041	998.953613	967.096313	1001.229126	-7.142830
227.221695	926.136963	1019.433350	935.239075	9.756124
227.601318	937.514587	1021.708862	969.371887	37.837845
227.980911	989.851563	996.678101	962.545288	-400.001801
228.360474	976.198425	1021.708862	957.994263	-39.999973
228.739990	1028.535400	1135.484863	967.096313	-57.446838
229.119476	971.647400	1124.107300	937.514587	-22.388060
229.498932	1005.780212	1130.933838	994.402588	-9.090927
229.878372	996.678101	1187.821899	917.034912	-41.666634
230.257736	1008.055725	1212.852539	994.402588	-6.666675
230.637115	980.749451	1203.750488	964.820801	-7.142859
231.016449	992.127075	1128.658325	985.300537	-4.999982
231.395737	903.381775	1121.831787	978.473938	34.374989
231.774994	937.514587	1014.882263	930.687988	-8.823581
232.154221	964.820801	1146.862427	1014.882263	27.500008
232.533417	937.514587	1146.862427	948.892151	5.434765
232.912582	917.034912	1167.342163	914.759338	-0.909112
233.291702	928.412476	1115.005249	930.687988	1.219507
233.670792	996.678101	1119.556274	910.208313	-70.370338
234.049866	907.932800	1133.209351	962.545288	24.242420
234.428894	957.994263	1176.444214	955.718750	-1.041663
234.807892	973.922913	1183.270874	1042.188477	32.608658
235.186874	985.300537	1133.209351	948.892151	-24.615427
235.565781	967.096313	1212.852539	962.545288	-1.851845
235.944687	1028.535400	1185.546387	1012.606750	-10.144927
236.323547	948.892151	1256.087524	996.678101	15.555556
236.702377	926.136963	1201.474976	989.851563	23.140503
237.081177	980.749451	1174.168701	971.647400	-4.705866
237.459946	980.749451	1190.097412	964.820801	-7.608696
237.838669	942.065613	1165.066650	994.402588	23.469387
238.217361	928.412476	1256.087524	983.024963	16.666660
238.596039	994.402588	1208.301514	903.381775	-42.553188
238.974670	942.065613	1208.301514	892.004150	-18.803423
239.353271	957.994263	1224.230225	937.514587	-7.692302
239.731842	980.749451	1240.158813	967.096313	-5.263163
240.110367	919.310425	1158.240112	992.127075	30.476183
240.488876	928.412476	1237.883301	973.922913	14.705890
240.867340	964.820801	1253.812012	987.576050	7.874028
241.245789	1019.433350	1258.363037	1001.229126	-7.619071
241.624176	969.371887	1228.781250	955.718750	-5.263163
242.002548	957.994263	1467.710938	980.749451	4.464282
242.380890	1023.984375	1495.017212	985.300537	-8.212557
242.759186	1019.433350	1533.701050	983.024963	-7.079657
243.137451	932.963501	1592.864502	973.922913	6.206903
243.515686	971.647400	1658.854614	955.718750	-2.317882
243.893890	964.820801	1658.854614	998.953613	4.918033
244.272049	967.096313	1517.772339	1049.015137	14.876047
244.650192	889.728638	1606.517700	1042.188477	21.269833
245.028290	905.657288	1506.394775	1060.392700	25.757576
245.406357	960.269775	1492.741699	964.820801	0.854698
245.784393	955.718750	1447.231201	1014.882263	12.037032
246.162384	907.932800	1501.843750	1049.015137	23.754797
246.540359	948.892151	1592.864502	962.545288	2.120143
246.918289	955.718750	1615.619751	1069.494751	17.241375
247.296204	989.851563	1756.702026	1069.494751	10.385752
247.674057	973.922913	2066.172852	1003.504700	2.708335
248.051895	976.198425	2243.663574	1085.423462	8.617598
248.429703	948.892151	2352.888428	1140.035889	13.614262
248.807465	1010.331238	2336.959961	1062.668213	3.945111
249.185196	1019.433350	2095.754639	1099.076538	7.399574
249.562897	964.820801	1893.233276	1019.433350	5.882359
249.940567	1001.229126	1840.896362	1035.361938	4.065041
250.318192	1021.708862	1779.457275	1080.872437	7.807812
250.695801	994.402588	1649.752563	1062.668213	10.416667
251.073349	980.749451	1579.211426	1051.290649	11.787081
251.450882	955.718750	1501.843750	969.371887	2.500002
251.828400	1053.566162	1524.598877	944.341125	-23.188417
252.205872	987.576050	1565.558350	1044.463989	9.842505
252.583313	926.136963	1636.099487	1012.606750	12.179486
252.960693	980.749451	1722.569214	1042.188477	8.282204
253.338074	955.718750	1913.713013	1092.250000	14.251781
253.715408	1019.433350	1845.447388	1030.810913	1.377406
254.092682	923.861450	1665.681274	969.371887	6.134972
254.469955	989.851563	1654.303589	1062.668213	10.958902
254.847198	937.514587	1574.660400	1033.086426	14.999994
255.224365	1017.157776	1508.670288	1055.841675	7.870379
255.601563	910.208313	1506.394775	1042.188477	22.137398
255.978683	973.922913	1547.354126	1035.361938	10.714280
256.355743	976.198425	1499.568237	1019.433350	8.260875
256.732819	930.687988	1570.109375	971.647400	6.405699
257.109894	944.341125	1549.629639	1049.015137	17.293243
257.486877	1005.780212	1576.935913	1064.943726	10.358562
257.863831	1028.535400	1683.885376	1067.219238	5.902775
258.240753	1008.055725	1672.507813	1044.463989	5.479442
258.617645	1017.157776	1692.987427	1071.770264	8.080807
258.994507	1003.504700	1799.937012	1021.708862	2.285714
259.371307	980.749451	1836.345337	1155.964600	20.478727
259.748108	985.300537	2125.336426	1101.352051	10.179637
260.124878	998.953613	2314.204590	1165.066650	12.629760
260.501617	898.830688	2500.797363	1121.831787	13.920458
260.878296	919.310425	2803.441650	1185.546387	14.130436
261.254944	951.167725	2889.911377	1124.107300	8.920188
261.631561	989.851563	2864.880615	1137.760376	7.888348
262.008179	946.616638	2521.277100	1064.943726	7.514451
262.384735	960.269775	2168.571289	1133.209351	14.312617
262.761261	973.922913	2018.386963	1094.525513	11.546840
263.137695	926.136963	2027.489014	1099.076538	15.702479
263.514191	928.412476	1934.192627	1126.382813	19.683262
263.890594	996.678101	1970.601074	1112.729614	11.915882
264.267029	944.341125	1909.161987	1126.382813	18.867926
264.643341	978.473938	1875.029175	1135.484863	17.512688
265.019653	942.065613	1845.447388	1008.055725	7.304787
265.395935	992.127075	1831.794189	1115.005249	14.634153
265.772217	1017.157776	1863.651489	1099.076538	9.677422
266.148407	953.443237	1829.518677	1087.698975	15.324677
266.524597	992.127075	1970.601074	1005.780212	1.395350
266.900726	926.136963	2029.764526	1017.157776	8.247421
267.276855	967.096313	2004.733887	1055.841675	8.552636
267.652924	967.096313	2241.387939	1053.566162	6.785719
268.028992	953.443237	2168.571289	1044.463989	7.490631
268.404999	955.718750	2118.509766	1037.637451	7.045006
268.781006	894.279663	2111.683350	1028.535400	11.028038
269.156921	980.749451	2125.336426	1017.157776	3.180914
269.532837	973.922913	2170.846924	1105.903076	11.026611
269.908661	953.443237	2086.652588	998.953613	4.016061
270.284546	892.004150	2143.540527	1051.290649	12.727277
270.660339	1023.984375	2148.091553	1071.770264	4.251008
271.036133	937.514587	2141.265137	1067.219238	10.775044
271.411835	944.341125	2364.266113	1046.739624	7.211543
271.787537	969.371887	2448.460449	1087.698975	8.000000
272.163239	967.096313	2616.848877	1146.862427	10.896550
272.538849	1035.361938	2780.686523	1133.209351	5.606259
272.914459	987.576050	2812.543701	1042.188477	2.992515
273.290070	980.749451	2632.777588	1119.556274	8.402207
273.665588	944.341125	2491.695313	1105.903076	10.441175
274.041046	996.678101	2537.205811	1140.035889	9.305758
274.416565	1010.331238	2441.633789	1151.413574	9.856919
274.791962	1005.780212	2389.296875	1083.147949	5.592108
275.167389	971.647400	2316.480225	1101.352051	9.644668
275.542755	983.024963	2402.949951	1069.494751	6.089743
275.918060	989.851563	2245.938965	1103.627563	9.057968
276.293365	1005.780212	2336.959961	1087.698975	6.153847
276.668640	976.198425	2475.766602	1117.280762	9.408198
277.043854	1023.984375	2489.419678	1142.311401	8.074531
277.419037	937.514587	2514.450439	1071.770264	8.513706
277.794189	964.820801	2439.358398	1092.250000	8.641977
278.169312	971.647400	2491.695313	1140.035889	11.077842
278.544373	976.198425	2514.450439	1099.076538	7.988165
278.919464	930.687988	2509.899414	1171.893188	15.273775
279.294464	935.239075	2330.133301	1115.005249	12.887441
279.669464	985.300537	2459.837891	1076.321289	6.172834
280.044403	1012.606750	2380.194824	1112.729614	7.321127
280.419312	944.341125	2437.082764	1094.525513	10.060976
280.794189	1019.433350	2430.256104	1151.413574	9.354841
281.169037	1037.637451	2559.960938	1051.290649	0.896866
281.543854	998.953613	2553.134277	1080.872437	5.270869
281.918671	980.749451	2589.542725	1099.076538	7.355021
282.293365	987.576050	2869.431641	1151.413574	8.706169
282.668091	926.136963	2878.533936	1174.168701	12.703960
283.042786	978.473938	3003.687500	1080.872437	5.056182
283.417419	967.096313	3005.962891	1112.729614	7.142856
283.792053	980.749451	2889.911377	1094.525513	5.959477
284.166595	973.922913	2937.697266	1115.005249	7.184244
284.541138	960.269775	2785.237549	1055.841675	5.236909
284.915619	998.953613	2939.972900	1160.515625	8.323565
285.290100	1055.841675	2921.768799	1096.801025	2.195121
285.664520	996.678101	2894.462402	1165.066650	8.872903
286.038940	930.687988	2935.421875	1162.791138	11.577754
286.413300	987.576050	3140.218750	1217.403687	10.676535
286.787628	896.555176	3165.249512	1210.577026	13.841523
287.161896	955.718750	3219.861816	1228.781250	12.060303
287.536194	1001.229126	3304.056152	1153.689087	6.620556
287.910400	987.576050	3137.943115	1210.577026	10.370367
288.284607	937.514587	3074.228516	1208.301514	12.673055
288.658752	955.718750	2935.421875	1219.679199	13.333335
289.032867	971.647400	2814.819336	1246.985352	14.938268
289.406921	1005.780212	2851.227539	1242.434326	12.823672
289.781006	912.483826	2853.503174	1244.709839	17.116060
290.154999	1008.055725	2878.533936	1333.455200	17.396591
290.529022	1003.504700	3169.800537	1294.771362	13.445377
290.902954	910.208313	3112.912354	1253.812012	15.599176
291.276825	1026.259888	3253.994629	1303.873413	12.461695
291.650757	985.300537	3331.362549	1353.934937	15.712901
292.024597	960.269775	3297.229736	1281.118164	13.729306
292.398407	962.545288	3265.372314	1365.312500	17.490120
292.772156	969.371887	3119.739014	1347.108276	17.566133
293.145905	978.473938	3115.187988	1331.179688	16.506924
293.519592	989.851563	2969.554688	1324.353149	16.896553
293.893280	1037.637451	3053.749023	1301.597900	13.092551
294.266907	917.034912	3110.636963	1258.363037	15.560166
294.640533	980.749451	3294.954102	1365.312500	16.617504
295.014069	978.473938	3249.443604	1422.200562	19.539082
295.387604	1001.229126	3547.536865	1422.200562	16.532623
295.761078	1019.433350	3588.496338	1460.884399	17.183348
296.134552	967.096313	3465.618164	1517.772339	22.040071
296.507996	967.096313	3547.536865	1444.955688	18.518520
296.881378	923.861450	3549.812500	1426.751587	19.150780
297.254730	939.790100	3729.578613	1510.945801	20.473082
297.628021	1028.535400	3988.988037	1485.915039	15.449653
298.001282	953.443237	4034.498291	1526.874512	18.611523
298.374573	1019.433350	4091.386475	1540.527588	16.962961
298.747803	1001.229126	3909.344727	1554.180664	19.014084
299.121002	998.953613	3747.782715	1542.803101	19.784769
299.494141	885.177612	3602.149414	1419.924927	19.681740
299.867188	1001.229126	3565.741211	1474.537476	18.456078
300.240265	1001.229126	3388.250488	1469.986450	19.637751
300.613312	969.371887	3367.770752	1469.986450	20.872864
300.986328	1026.259888	3345.015625	1447.231201	18.155050
301.359314	987.576050	3203.933350	1433.578125	20.123201
301.732239	951.167725	3140.218750	1413.098389	21.101868
302.105103	921.585938	3265.372314	1369.863525	19.126213
302.477997	953.443237	3188.004639	1444.955688	21.995924
302.850830	1003.504700	3367.770752	1426.751587	17.901829
303.223602	1008.055725	3135.667725	1353.934937	16.256685
303.596375	1051.290649	3208.484375	1397.169800	16.033754
303.969116	973.922913	3071.953125	1383.516602	19.522774
304.341766	987.576050	3076.504150	1367.588013	18.191719
304.714478	980.749451	3156.147461	1394.894287	19.037659
305.087067	944.341125	3162.973877	1383.516602	19.794870
305.459656	989.851563	3144.769775	1390.343262	18.585007
305.832214	1003.504700	3172.075928	1410.822876	18.782789
306.204681	971.647400	3040.095703	1417.649414	21.562155
306.577148	907.932800	3056.024414	1429.027100	24.258476
306.949646	998.953613	3140.218750	1429.027100	20.085018
307.322021	921.585938	3167.524902	1408.547363	21.681864
307.694397	935.239075	3126.565674	1440.404663	23.052958
308.066742	1019.433350	3053.749023	1422.200562	19.798658
308.439026	980.749451	3324.535889	1378.965576	16.990292
308.811279	1001.229126	3217.586426	1419.924927	18.891169
309.183502	998.953613	3417.832275	1429.027100	17.779871
309.555695	946.616638	3481.546875	1485.915039	21.274685
309.927887	951.167725	3415.556641	1413.098389	18.744228
310.299988	1023.984375	3556.638916	1438.129150	16.352201
310.672058	942.065613	3499.750977	1454.057739	20.017792
311.044128	946.616638	3558.914551	1433.578125	18.641117
311.416168	914.759338	3654.486328	1383.516602	17.109634
311.788147	942.065613	3636.282227	1508.670288	21.030405
312.160065	967.096313	3615.802490	1435.853638	17.697598
312.531982	944.341125	3549.812500	1349.383789	15.545850
312.903870	992.127075	3433.760986	1449.506714	18.732525
313.275696	948.892151	3417.832275	1497.292725	22.211983
313.647491	1014.882263	3319.984863	1426.751587	17.867722
314.019318	1001.229126	3404.179199	1435.853638	18.087122
314.391022	1017.157776	3415.556641	1408.547363	16.318787
314.762726	1003.504700	3445.138428	1447.231201	18.173344
315.134369	989.851563	3563.465576	1422.200562	16.799295
315.505981	937.514587	3699.996826	1438.129150	18.121910
315.877594	976.198425	3759.160400	1447.231201	16.925592
316.249146	1049.015137	3593.047363	1442.680176	15.474059
316.620636	928.412476	3467.893799	1385.792114	18.010750
316.992157	973.922913	3276.750000	1410.822876	18.972330
317.363586	896.555176	3290.403076	1331.179688	18.155895
317.735016	985.300537	3256.270264	1356.210449	16.332666
318.106354	960.269775	3304.056152	1360.761475	17.087381
318.477722	1026.259888	3347.291016	1360.761475	14.411766
318.849060	919.310425	3253.994629	1385.792114	19.980505
319.220306	910.208313	3244.892578	1267.465088	15.302145
319.591522	1014.882263	3442.863037	1385.792114	15.276474
319.962738	985.300537	3454.240479	1394.894287	16.589863
320.333923	944.341125	3304.056152	1369.863525	18.032787
320.705017	1042.188477	3310.882813	1401.720825	15.847545
321.076111	998.953613	3329.086914	1306.148926	13.183594
321.447144	978.473938	3283.576416	1372.139038	17.077986
321.818176	914.759338	3222.137451	1340.281738	18.441814
322.189178	967.096313	3201.657715	1347.108276	17.006109
322.560120	1005.780212	3326.811523	1353.934937	15.000002
322.931030	962.545288	3299.505127	1356.210449	16.845182
323.301910	985.300537	3411.005615	1408.547363	17.448404
323.672729	1030.810913	3679.517090	1390.343262	13.573886
324.043549	980.749451	3795.568604	1467.710938	17.299921
324.414337	983.024963	3918.446777	1438.129150	15.503877
324.785095	976.198425	4132.345703	1426.751587	14.275416
325.155792	985.300537	4089.110840	1474.537476	15.762463
325.526428	910.208313	4109.590332	1535.976563	19.559034
325.897034	987.576050	3968.508301	1424.476074	14.656490
326.267670	946.616638	3893.416016	1406.271851	15.598456
326.638184	889.728638	4009.467773	1403.996338	16.484316
327.008728	1028.535400	4068.631104	1388.067749	11.826349
327.379211	1014.882263	4048.151611	1479.088501	15.303825
327.749634	937.514587	3927.548828	1326.628662	13.013700
328.120026	978.473938	3891.140625	1363.036987	13.203126
328.490417	937.514587	3811.497314	1399.445313	16.072844
328.860748	987.576050	3659.037354	1392.618774	15.161840
329.231079	946.616638	3654.486328	1415.373901	17.310925
329.601318	973.922913	3834.252441	1372.139038	13.922036
329.971558	942.065613	3786.466553	1415.373901	16.639999
330.341736	969.371887	3754.609375	1476.812988	18.218952
330.711914	971.647400	3690.894775	1397.169800	15.648536
331.082062	957.994263	3756.884766	1467.710938	18.211382
331.452148	973.922913	3709.098877	1406.271851	15.806988
331.822174	1021.708862	3634.006836	1376.690063	13.588849
332.192200	926.136963	3877.487549	1378.965576	15.343098
332.562134	989.851563	3872.936523	1449.506714	15.943171
332.932129	996.678101	4009.467773	1460.884399	15.407857
333.302063	894.279663	4077.733398	1406.271851	16.082916
333.671906	953.443237	4145.999023	1497.292725	17.034925
334.041718	930.687988	4152.825684	1460.884399	16.454803
334.411499	967.096313	4216.540039	1431.302612	14.285715
334.781281	992.127075	4307.561035	1495.017212	15.168154
335.151001	1008.055725	4230.193359	1490.466064	14.971748
335.520721	1010.331238	3986.712402	1390.343262	12.767586
335.890350	944.341125	4216.540039	1417.649414	14.464533
336.259979	926.136963	4221.091309	1469.986450	16.505524
336.629547	930.687988	4266.601563	1467.710938	16.098227
336.999084	948.892151	4328.040527	1551.905151	17.845118
337.368622	912.483826	4150.549805	1485.915039	17.709066
337.738098	878.351013	4303.009766	1524.598877	18.870432
338.107513	951.167725	4243.846191	1499.568237	16.655149
338.476898	944.341125	4252.948242	1522.323364	17.469049
338.846252	967.096313	4419.061523	1542.803101	16.677652
339.215576	1055.841675	4425.888184	1433.578125	11.208642
339.584869	971.647400	4189.233887	1442.680176	14.639320
339.954132	944.341125	4186.958496	1451.782227	15.649120
340.323334	1028.535400	4155.101074	1454.057739	13.609896
340.692505	926.136963	3950.304199	1360.761475	14.371709
341.061646	960.269775	3977.610352	1447.231201	16.138762
341.430786	967.096313	4173.305176	1406.271851	13.697658
341.799896	926.136963	4127.794922	1429.027100	15.707179
342.168915	876.075500	4373.550781	1476.812988	17.176317
342.537903	937.514587	4428.163574	1504.119263	16.232073
342.906830	1026.259888	4478.225098	1488.190552	13.381672
343.275757	1001.229126	4496.429199	1490.466064	13.997394
343.644684	1042.188477	4460.020996	1485.915039	12.982689
344.013550	1017.157776	4587.449707	1485.915039	13.129382
344.382355	1001.229126	4828.655273	1467.710938	12.187872
344.751129	983.024963	4849.134766	1551.905151	14.714538
345.119873	1092.250000	5015.248047	1501.843750	10.440835
345.488586	1008.055725	5311.065430	1551.905151	12.638815
345.857269	1001.229126	5301.963379	1654.303589	15.185184
346.225891	1008.055725	5531.791016	1654.303589	14.285713
346.594482	1035.361938	5570.475098	1611.068726	12.694430
346.963043	1046.739624	5622.812012	1629.272949	12.729985
347.331543	1010.331238	5042.554199	1570.109375	13.882619
347.700043	948.892151	4976.563965	1599.691162	16.158194
348.068512	887.453125	4933.329102	1501.843750	15.185602
348.436951	994.402588	4985.666016	1451.782227	11.459520
348.805328	951.167725	4769.491699	1499.568237	14.362336
349.173645	1021.708862	4776.318359	1483.639526	12.303028
349.541931	983.024963	4760.389648	1429.027100	11.807230
349.910217	978.473938	4865.063477	1510.945801	13.700233
350.278473	923.861450	4944.706543	1510.945801	14.601018
350.646667	1021.708862	4999.319336	1542.803101	13.100686
351.014801	914.759338	5085.789063	1572.384888	15.766503
351.382935	980.749451	5024.350098	1638.375000	16.263365
351.751007	1035.361938	5010.696777	1558.731689	13.165425
352.119049	1071.770264	5188.187500	1558.731689	11.829740
352.487091	1028.535400	5126.748535	1576.935913	13.381455
352.855072	917.034912	5185.912109	1631.548462	16.737741
353.222992	985.300537	5092.615723	1624.721802	15.567863
353.590881	1010.331238	5427.117188	1599.691162	13.343637
353.958740	987.576050	5620.536621	1592.864502	13.064831
354.326599	987.576050	5697.904297	1729.395752	15.748791
354.694397	985.300537	5889.047852	1690.711914	14.385150
355.062134	898.830688	5964.140137	1711.191650	16.037735
355.429840	994.402588	5925.456055	1656.579102	13.428702
355.797516	992.127075	6159.834961	1681.609863	13.342139
356.165192	1014.882263	6259.957520	1743.048950	13.882865
356.532776	912.483826	6401.040039	1747.599976	15.215590
356.900360	978.473938	6583.081543	1720.293701	13.235891
357.267883	992.127075	6528.469238	1872.753662	15.906289
357.635376	1051.290649	6803.807129	1913.713013	14.992088
358.002808	1008.055725	7493.290039	1797.661377	12.175437
358.370270	948.892151	7682.158203	1900.059814	14.126393
358.737640	955.718750	7552.453613	1902.335449	14.349776
359.105011	1005.780212	7322.625977	1884.131226	13.904899
359.472321	1044.463989	7111.002441	1904.610962	14.178546
359.839569	1067.219238	7090.522949	1834.069824	12.731395
360.206787	962.545288	7024.532715	1756.702026	13.100600
360.574005	873.799988	7136.033203	1886.406738	16.170057
360.941193	962.545288	7754.975098	1915.988525	14.036851
361.308319	926.136963	8021.210938	2057.070801	15.939704
361.675415	1017.157776	8676.560547	2154.918213	14.854428
362.042450	926.136963	9129.389648	2059.346436	13.814148
362.409424	928.412476	9871.208984	2266.418701	14.961832
362.776428	1014.882263	9916.719727	2132.163086	12.551125
363.143402	1033.086426	9432.034180	2164.020264	13.465185
363.510284	946.616638	8792.612305	2007.009399	13.515083
363.877136	989.851563	7898.332520	1968.325439	14.163372
364.243988	955.718750	7388.616211	1831.794189	13.618675
364.610779	964.820801	7172.441406	1795.385864	13.379766
364.977539	951.167725	6967.644531	1852.273926	14.977307
365.344269	1044.463989	6658.173828	1752.151001	12.606405
365.710938	985.300537	6737.816895	1820.416626	14.517405
366.077576	905.657288	6637.694336	1677.058838	13.457721
366.444183	976.198425	6587.632813	1756.702026	13.909163
366.810760	983.024963	6471.581055	1758.977539	14.137645
367.177277	944.341125	6583.081543	1708.916138	13.559323
367.543823	976.198425	6660.449219	1786.283813	14.251401
367.910248	1051.290649	6583.081543	1747.599976	12.587412
368.276642	948.892151	6517.091797	1815.865601	15.570086
368.643036	935.239075	6476.132324	1799.937012	15.605750
369.009399	980.749451	6303.192383	1799.937012	15.391195
369.375671	932.963501	6253.131348	1733.946899	15.055604
369.741974	987.576050	6253.131348	1711.191650	13.742437
370.108215	948.892151	6216.722656	1718.018188	14.600432
370.474396	921.585938	6091.569336	1722.569214	15.492956
370.840546	892.004150	6125.702148	1640.650513	14.304347
371.206665	973.922913	6401.040039	1722.569214	13.794548
371.572784	964.820801	6644.520508	1770.355225	14.182693
371.938843	1008.055725	6601.285645	1793.110352	14.035801
372.304840	935.239075	6705.959961	1777.181763	14.589906
372.670807	932.963501	6649.071777	1711.191650	13.614650
373.036713	962.545288	6712.786133	1733.946899	13.415118
373.402649	964.820801	6503.438477	1763.528564	14.420706
373.768524	985.300537	6594.459473	1836.345337	15.172413
374.134308	960.269775	6494.336426	1724.844727	13.815789
374.500122	894.279663	6412.417480	1793.110352	16.288660
374.865875	971.647400	6692.306641	1761.253052	13.802704
375.231567	996.678101	6708.235352	1786.283813	13.824701
375.597260	1019.433350	6730.990723	1806.763550	13.784860
375.962891	996.678101	6951.715820	1754.426514	12.724494
376.328461	1008.055725	7156.512695	1774.906250	12.472243
376.694031	1019.433350	7215.676270	1820.416626	12.926918
377.059540	985.300537	7659.402832	1863.651489	13.160585
377.425049	1005.780212	7932.465332	1925.090576	13.272011
377.790497	1001.229126	8314.752930	2004.733887	13.721221
378.155945	935.239075	8612.846680	2054.795166	14.582097
378.521301	962.545288	8301.099609	2057.070801	14.914729
378.886597	894.279663	8121.333984	1925.090576	14.263224
379.251892	935.239075	7802.760742	1943.294800	14.678596
379.617157	1010.331238	7584.311035	1927.366089	13.949462
379.982422	944.341125	7286.217773	1818.141113	13.778256
380.347595	942.065613	7167.890625	1861.375977	14.766081
380.712738	998.953613	7240.707031	1736.222412	11.811886
381.077820	992.127075	7288.493164	1847.722900	13.588724
381.442902	960.269775	7463.708008	1929.641602	14.905528
381.807953	983.024963	7163.339355	1838.620850	13.843889
382.172974	980.749451	7161.063965	1811.314575	13.438881
382.537933	951.167725	7097.349609	1902.335449	15.475750
382.902832	987.576050	7151.961914	1847.722900	13.953488
383.267700	998.953613	7593.413086	1827.243164	12.560386
383.632538	932.963501	7566.106445	1838.620850	13.653518
383.997345	976.198425	7805.036133	1847.722900	12.762413
384.362152	912.483826	7741.321777	1815.865601	13.228924
384.726898	971.647400	7761.801270	1884.131226	13.438338
385.091553	942.065613	7939.291992	1890.957764	13.560975
385.456238	985.300537	8114.507324	1931.917114	13.278007
385.820862	980.749451	7962.047363	1929.641602	13.591916
386.185425	980.749451	7925.639160	1945.570313	13.892529
386.549988	946.616638	8157.742188	1854.549438	12.590722
386.914490	960.269775	8109.956055	1890.957764	13.017186
387.278961	983.024963	8166.844238	1997.907227	14.127336
387.643372	1012.606750	8319.303711	1966.049927	13.048895
388.007782	996.678101	8542.304688	1979.703125	13.027745
388.372101	957.994263	8749.377930	1897.784302	12.061914
388.736450	930.687988	8401.222656	1870.478149	12.579959
389.100739	942.065613	8348.885742	1913.713013	13.118279
389.464966	969.371887	8285.170898	1881.855713	12.472785
389.829163	983.024963	8166.844238	1931.917114	13.208742
390.193329	989.851563	8043.965820	1909.161987	13.032259
390.557495	926.136963	8305.651367	1888.682251	13.043477
390.921570	882.902100	8469.488281	1920.539551	13.677265
391.285614	948.892151	8642.427734	1865.927002	11.919550
391.649597	1012.606750	9017.888672	1897.784302	11.057419
392.013550	978.473938	9504.850586	2009.284912	12.089672
392.377502	964.820801	9752.881836	2075.274902	12.635941
392.741455	1019.433350	9507.125977	2066.172852	12.332439
393.105316	1014.882263	9536.708008	2004.733887	11.615487
393.469086	973.922913	9534.432617	1997.907227	11.961721
393.832886	1026.259888	9279.574219	1938.743774	11.055969
394.196655	973.922913	9454.789063	2020.662476	12.342365
394.560333	973.922913	9666.412109	1904.610962	10.706807
394.924042	983.024963	9593.595703	1945.570313	11.178648
395.287659	987.576050	9623.177734	2002.458252	11.752305
395.651245	928.412476	9520.779297	1954.672363	11.943855
396.014771	939.790100	9131.665039	2002.458252	12.972222
396.378296	1035.361938	8854.051758	1895.508789	11.001163
396.741791	928.412476	8776.683594	1784.008301	10.901711
397.105255	953.443237	8453.559570	1893.233276	12.530339
397.468628	1001.229126	8351.161133	1790.834839	10.743034
397.832001	935.239075	8260.140625	1818.141113	12.053432
398.195313	948.892151	8656.081055	1829.518677	11.426041
398.558624	935.239075	8540.029297	1804.488037	11.430283
398.921844	898.830688	8565.060547	1845.447388	12.347878
399.285095	946.616638	8669.734375	1793.110352	10.960518
399.648254	942.065613	8701.591797	1788.559326	10.909090
400.011383	932.963501	8574.162109	1849.998413	12.001192
400.374451	953.443237	8501.345703	1941.019287	13.084113
400.737549	992.127075	8608.294922	1824.967651	10.935165
401.100586	973.922913	8469.488281	1838.620850	11.536127
401.463562	983.024963	8553.682617	1781.732788	10.550045
401.826508	994.402588	8844.949219	1843.171875	10.811594
402.189392	1014.882263	8626.499023	1729.395752	9.387145
402.552246	960.269775	8694.764648	1788.559326	10.709032
402.915070	996.678101	8685.663086	1815.865601	10.654039
403.277893	996.678101	8872.255859	1859.100464	10.950592
403.640656	955.718750	9131.665039	1870.478149	11.188422
404.003326	953.443237	9568.565430	1815.865601	10.010565
404.366028	962.545288	9454.789063	1877.304688	10.771704
404.728699	969.371887	9896.240234	1838.620850	9.737446
405.091248	939.790100	10103.312500	1861.375977	10.057114
405.453857	994.402588	10301.282227	1856.824951	9.266503
405.816345	971.647400	9934.923828	1824.967651	9.520183
406.178833	1030.810913	10176.128906	1881.855713	9.305798
406.541260	1008.055725	10112.414063	1843.171875	9.172708
406.903687	944.341125	9775.637695	1770.355225	9.353259
407.266052	962.545288	9707.372070	1863.651489	10.304448
407.628387	967.096313	9552.636719	1784.008301	9.514975
407.990662	1001.229126	9552.636719	1790.834839	9.233635
408.352905	1008.055725	9463.890625	1840.896362	9.849301
408.715118	989.851563	9336.461914	1727.120239	8.833151
409.077332	998.953613	9236.338867	1724.844727	8.812155
409.439484	1037.637451	9409.278320	1784.008301	8.915467
409.801575	1021.708862	9648.208008	1763.528564	8.599314
410.163605	951.167725	9853.004883	1724.844727	8.691206
410.525635	1055.841675	9971.332031	1724.844727	7.503828
410.887604	971.647400	10112.414063	1720.293701	8.190191
411.249573	978.473938	10148.823242	1752.151001	8.436724
411.611481	994.402588	10219.364258	1729.395752	7.967439
411.973328	976.198425	9937.199219	1697.538574	8.049772
412.335144	926.136963	10064.628906	1681.609863	8.266932
412.696930	1008.055725	9752.881836	1663.405762	7.494146
413.058685	946.616638	9923.545898	1667.956787	8.035488
413.420410	953.443237	9707.372070	1624.721802	7.668312
413.782104	980.749451	9837.076172	1592.864502	6.911613
414.143707	978.473938	9900.791016	1640.650513	7.421576
414.505310	989.851563	9907.617188	1615.619751	7.017096
414.866852	987.576050	9932.648438	1690.711914	7.860595
415.228394	1003.504700	10360.446289	1606.517700	6.444552
415.589874	932.963501	10294.456055	1592.864502	7.049100
415.951324	978.473938	10346.792969	1667.956787	7.359728
416.312683	973.922913	10663.090820	1704.365112	7.538751
416.674072	955.718750	11029.449219	1611.068726	6.505534
417.035370	967.096313	11393.532227	1697.538574	7.005676
417.396667	1033.086426	11527.788086	1708.916138	6.439723
417.757935	1021.708862	11725.758789	1658.854614	5.952380
418.119141	1026.259888	12174.036133	1652.028076	5.613390
418.480286	985.300537	12328.771484	1679.334351	6.118355
418.841400	887.453125	13157.061523	1708.916138	6.695104
419.202484	869.248962	13216.224609	1763.528564	7.242904
419.563568	953.443237	13830.615234	1677.058838	5.619368
419.924591	973.922913	14813.640625	1925.090576	6.872739
420.285553	917.034912	14708.966797	1904.610962	7.160535
420.646484	987.576050	16024.217773	1834.069824	5.629540
421.007355	960.269775	15990.084961	1915.988525	6.358819
421.368225	976.198425	17257.548828	1972.876587	6.121594
421.729065	998.953613	17457.794922	2004.733887	6.110881
422.089874	955.718750	17962.960938	1997.907227	6.127910
422.450592	935.239075	17699.000000	1986.529663	6.271209
422.811279	987.576050	17787.746094	1893.233276	5.390762
423.171936	962.545288	17689.898438	2032.040039	6.393688
423.532593	1005.780212	17282.580078	1936.468262	5.717881
423.893127	955.718750	17614.806641	2011.560425	6.337932
424.253723	985.300537	18033.501953	2025.213501	6.099840
424.614197	1042.188477	18001.644531	1961.498901	5.420636
424.974670	1012.606750	18290.636719	2022.937988	5.847491
425.335052	1026.259888	18879.996094	1966.049927	5.263828
425.695496	1014.882263	17787.746094	2057.070801	6.213540
426.055817	932.963501	17960.685547	2070.723877	6.681812
426.416168	1003.504700	17792.296875	1938.743774	5.570615
426.776398	1023.984375	16720.527344	1884.131226	5.479849
427.136627	955.718750	16126.616211	1890.957764	6.164691
427.496826	930.687988	16160.749023	1897.784302	6.349918
427.856995	935.239075	15562.287109	1922.815063	6.751711
428.217102	971.647400	14902.385742	1895.508789	6.631819
428.577179	1010.331238	14731.721680	1831.794189	5.986732
428.937195	1003.504700	14381.291016	1820.416626	6.106481
429.297180	969.371887	13807.860352	1827.243164	6.682027
429.657135	996.678101	13587.134766	1822.692139	6.560636
430.017059	971.647400	13707.737305	1854.549438	6.932285
430.376984	978.473938	13878.401367	1806.763550	6.420886
430.736786	939.790100	13414.195313	1774.906250	6.694637
431.096588	964.820801	13471.083008	1840.896362	7.005095
431.456360	896.555176	13584.859375	1749.875488	6.725251
431.816071	983.024963	13234.428711	1854.549438	7.113671
432.175781	964.820801	13400.541992	1852.273926	7.136322
432.535400	937.514587	13352.755859	1829.518677	7.184751
432.895020	942.065613	13359.583008	1727.120239	6.322155
433.254578	976.198425	13687.257813	1702.089600	5.710705
433.614105	985.300537	13764.625000	1749.875488	5.982906
433.973602	953.443237	14190.147461	1779.457275	6.240330
434.333038	871.524475	13967.146484	1813.590088	7.193745
434.692444	969.371887	14356.260742	1765.804199	5.949346
435.051819	957.994263	14233.382813	1747.599976	5.947892
435.411133	1021.708862	14285.719727	1879.580200	6.467662
435.770416	932.963501	13939.840820	1761.253052	6.368089
436.129669	989.851563	14267.515625	1690.711914	5.278491
436.488861	992.127075	13946.666992	1724.844727	5.656068
436.848083	992.127075	14051.340820	1749.875488	5.802404
437.207184	998.953613	13930.738281	1749.875488	5.806792
437.566254	969.371887	14433.628906	1770.355225	5.948961
437.925293	1010.331238	14308.474609	1736.222412	5.458591
438.284363	967.096313	14374.464844	1724.844727	5.651731
438.643311	1046.739624	14572.435547	1699.814087	4.828398
439.002258	932.963501	14449.556641	1658.854614	5.370370
439.361145	1021.708862	15478.092773	1756.702026	5.084212
439.719971	948.892151	15614.624023	1747.599976	5.446083
440.078827	971.647400	15842.175781	1733.946899	5.126244
440.437592	1037.637451	16379.198242	1690.711914	4.256897
440.796295	1042.188477	16545.312500	1695.262939	4.212534
441.155029	1017.157776	17614.806641	1802.212524	4.729916
441.513672	898.830688	18336.146484	1815.865601	5.259037
441.872253	969.371887	17960.685547	1811.314575	4.955136
442.230865	923.861450	17544.265625	1777.181763	5.134173
442.589386	1085.423462	17341.744141	1720.293701	3.905375
442.947876	960.269775	17068.681641	1706.640625	4.633423
443.306335	967.096313	16820.650391	1713.467163	4.707909
443.664764	957.994263	16074.279297	1665.681274	4.681620
444.023102	919.310425	16688.669922	1711.191650	5.021645
444.381500	973.922913	16586.271484	1647.477051	4.314240
444.739777	957.994263	16424.708984	1715.742676	4.899220
445.098022	851.044800	16467.943359	1704.365112	5.464083
445.456238	978.473938	16631.781250	1629.272949	4.157581
445.814423	917.034912	17150.599609	1745.324463	5.102327
446.172577	996.678101	18217.820313	1772.630737	4.505814
446.530701	932.963501	18365.728516	1686.160889	4.320585
446.888733	910.208313	18727.537109	1740.773438	4.661558
447.246765	944.341125	19808.408203	1847.722900	4.788903
447.604736	962.545288	18905.027344	1784.008301	4.578313
447.962677	930.687988	19376.060547	1806.763550	4.749568
448.320587	967.096313	19637.744141	1790.834839	4.411944
448.678436	1005.780212	18859.515625	1909.161987	5.059903
449.036255	971.647400	18907.302734	1824.967651	4.757675
449.394043	971.647400	17696.724609	1881.855713	5.442177
449.751770	971.647400	17869.664063	1938.743774	5.723135
450.109467	939.790100	17398.632813	1786.283813	5.143094
450.467163	935.239075	17325.814453	1890.957764	5.830904
450.824768	980.749451	16959.457031	1838.620850	5.368841
451.182343	953.443237	17166.529297	1904.610962	5.866667
451.539886	923.861450	16097.034180	1849.998413	6.103779
451.897369	951.167725	16388.300781	1922.815063	6.294221
452.254822	985.300537	16392.851563	1918.264038	6.055235
452.612274	962.545288	16438.361328	2018.386963	6.822526
452.969635	996.678101	16624.955078	1997.907227	6.406523
453.326965	957.994263	16647.710938	2116.234375	7.382161
453.684326	953.443237	16165.299805	2052.519775	7.225131
454.041534	967.096313	15971.880859	2079.825928	7.415832
454.398773	978.473938	15532.705078	2016.111450	7.129456
454.755951	880.626526	15305.153320	2011.560425	7.840353
455.113098	1021.708862	14902.385742	2118.509766	7.901639
455.470215	969.371887	14747.650391	2273.245361	9.463254
455.827240	932.963501	15018.437500	2193.602051	8.949920
456.184265	960.269775	14704.415039	2257.316650	9.437086
456.541260	962.545288	14565.608398	2200.428711	9.100034
456.898193	1008.055725	14834.120117	2375.643799	9.891376
457.255096	1010.331238	14972.926758	2443.909424	10.267275
457.611969	964.820801	14649.802734	2448.460449	10.841371
457.968781	1003.504700	15009.334961	2523.552490	10.852965
458.325531	1010.331238	15321.082031	2639.604248	11.384957
458.682312	973.922913	15762.532227	2644.155273	11.294046
459.039001	953.443237	16816.099609	2885.360352	12.179027
459.395630	969.371887	17287.130859	3021.891602	12.578442
459.752289	971.647400	18870.894531	3308.607178	13.056190
460.108856	951.167725	20306.748047	3661.312988	14.001881
460.465363	930.687988	20816.464844	3759.160400	14.223595
460.821899	921.585938	20930.240234	3884.313965	14.807233
461.178345	928.412476	20238.482422	3816.048340	14.954041
461.534760	942.065613	19869.847656	3781.915527	15.003607
461.891144	976.198425	18597.832031	3711.374512	15.521694
462.247467	1023.984375	18158.656250	3686.343750	15.537848
462.603760	937.514587	17769.541016	3750.058350	16.709476
462.960052	987.576050	16793.343750	3656.761963	16.887419
463.316254	1049.015137	16317.759766	3679.517090	17.228018
463.672424	967.096313	16001.461914	3718.200928	18.298775
464.028564	962.545288	15616.899414	3775.089111	19.192547
464.384644	1008.055725	15585.041992	3670.415039	18.264128
464.740723	992.127075	15990.084961	3752.333740	18.403883
465.096741	921.585938	15614.624023	3747.782715	19.234938
465.452698	932.963501	15703.369141	3927.548828	20.274227
465.808655	901.106262	15849.001953	3984.437012	20.627190
466.164520	889.728638	15439.408203	3995.814453	21.348139
466.520355	971.647400	16347.341797	4239.295410	21.252035
466.876190	973.922913	16413.332031	4296.183105	21.518053
467.231964	978.473938	16331.413086	4396.306152	22.261745
467.587677	983.024963	17155.150391	4532.837402	21.950191
467.943390	948.892151	17246.171875	4764.940430	23.415247
468.299011	998.953613	16404.228516	4601.103027	23.382570
468.654633	939.790100	16467.943359	4660.266602	23.959557
469.010223	1039.912964	16565.791016	4664.817871	23.347504
469.365723	1005.780212	15673.787109	4548.766113	24.154514
469.721191	1030.810913	16015.115234	4764.940430	24.920271
470.076660	1005.780212	15589.592773	4546.490723	24.278360
470.432068	973.922913	15928.645508	4607.929688	24.300062
470.787445	996.678101	15318.805664	4637.511230	25.421034
471.142792	987.576050	15703.369141	4637.511230	24.802843
471.498016	951.167725	15748.879883	4978.839355	27.218204
471.853271	996.678101	15539.531250	4901.471680	26.850256
472.208496	994.402588	15753.430664	5078.962402	27.674992
472.563660	951.167725	15739.777344	5008.421387	27.434992
472.918762	935.239075	16310.933594	5381.606934	28.918159
473.273865	987.576050	16649.986328	5172.258789	26.717999
473.628876	980.749451	17055.029297	5604.607910	28.765570
473.983917	969.371887	16995.865234	5445.321289	27.928438
474.338837	978.473938	17004.966797	5540.893066	28.467981
474.693787	978.473938	16938.976563	5520.413574	28.457371
475.048645	939.790100	16695.496094	5320.167480	27.801847
475.403503	946.616638	16784.242188	5672.873535	29.841953
475.758270	1023.984375	17027.722656	5695.628418	29.190954
476.113037	946.616638	16768.312500	5722.935059	30.188408
476.467773	994.402588	17419.111328	5747.965332	28.941532
476.822418	1026.259888	18315.666016	6264.508789	30.297449
477.177063	917.034912	18183.687500	6171.212402	30.429626
477.531647	976.198425	18700.230469	6246.304688	29.734243
477.886200	928.412476	19109.824219	6426.070801	30.237795
478.240723	919.310425	19703.734375	6794.705078	31.278013
478.595184	964.820801	19690.082031	6812.909180	31.231010
478.949585	951.167725	20377.289063	6972.195801	30.994495
479.303986	907.932800	20322.675781	6958.542480	31.165028
479.658325	1023.984375	20322.675781	7242.982910	32.224976
480.012634	962.545288	20349.982422	7256.635742	32.464787
480.366913	955.718750	21021.261719	7270.289063	31.469721
480.721130	901.106262	21558.283203	7475.085938	31.824190
481.075317	946.616638	22486.697266	7711.740234	31.407143
481.429474	962.545288	23492.476563	8330.681641	32.703766
481.783569	996.678101	24436.818359	8544.581055	32.200756
482.137604	962.545288	25881.773438	9013.337891	32.307552
482.491669	964.820801	28155.019531	9859.832031	32.714035
482.845612	1019.433350	31054.033203	10795.070313	32.547916
483.199554	939.790100	35204.582031	12121.699219	32.633816
483.553436	1019.433350	41039.019531	14429.077148	33.507702
483.907318	980.749451	47870.132813	17159.703125	34.504517
484.261139	937.514587	53791.035156	19931.287109	35.936630
484.614899	892.004150	56366.925781	21169.169922	36.551952
484.968628	1014.882263	55886.789063	21055.394531	36.522354
485.322357	989.851563	53520.250000	19865.296875	35.932423
485.675964	964.820801	49763.363281	18058.533203	35.029144
486.029572	989.851563	45565.027344	16709.148438	35.264687
486.383148	976.198425	43346.394531	15600.970703	34.516651
486.736694	1026.259888	40661.281250	14977.477539	35.199219
487.090149	1001.229126	40847.875000	15109.458008	35.406315
487.443604	944.341125	41958.328125	15539.531250	35.585884
487.796997	932.963501	44281.636719	16672.740234	36.309708
488.150360	987.576050	45189.566406	17159.703125	36.586872
488.503693	962.545288	45797.132813	17298.509766	36.436077
488.856964	835.116150	45071.242188	16888.916016	36.291153
489.210175	953.443237	42074.378906	16067.452148	36.755020
489.563416	917.034912	40065.093750	14886.457031	35.683563
489.916565	996.678101	37700.828125	14233.382813	36.063240
490.269653	948.892151	35341.113281	13468.807617	36.403332
490.622772	967.096313	34267.066406	13011.427734	36.169197
490.975769	960.269775	34125.984375	13015.978516	36.349915
491.328735	957.994263	35564.113281	13787.380859	37.072598
491.681732	980.749451	37780.472656	14777.232422	37.490726
492.034607	1005.780212	40306.300781	15560.011719	37.033176
492.387482	1005.780212	40998.058594	15742.052734	36.847794
492.740326	946.616638	39530.347656	15389.347656	37.432178
493.093079	1008.055725	37689.449219	14802.262695	37.605461
493.445862	1026.259888	34558.335938	13780.553711	38.036102
493.798523	960.269775	31911.904297	12376.557617	36.884281
494.151215	937.514587	29486.199219	11677.972656	37.621552
494.503815	942.065613	27454.158203	10754.111328	37.009701
494.856384	951.167725	25943.212891	10421.885742	37.894928
495.208923	1035.361938	24632.511719	9859.832031	37.396336
495.561432	923.861450	23874.763672	9670.963867	38.112240
495.913879	969.371887	24197.888672	9416.105469	36.363636
496.266296	926.136963	24345.796875	9668.687500	37.329964
496.618683	1021.708862	24015.845703	9711.922852	37.793175
496.970978	969.371887	24914.677734	10048.700195	37.916943
497.323273	985.300537	25158.158203	10062.352539	37.550594
497.675507	1019.433350	25296.964844	9916.719727	36.648232
498.027710	1028.535400	25349.300781	10110.138672	37.340942
498.379852	923.861450	24955.636719	10030.496094	37.894142
498.731995	971.647400	24409.511719	9816.596680	37.737862
499.084076	1051.290649	24320.765625	9780.188477	37.512222
499.436096	1080.872437	23981.712891	9659.585938	37.460258
499.788086	1049.015137	23340.017578	9623.177734	38.464680
500.140106	989.851563	22666.462891	9718.749023	40.268738
500.491943	1033.086426	22322.859375	9129.389648	38.029072
500.843842	1044.463989	22081.654297	9042.919922	38.020554
501.195679	1001.229126	21544.630859	8865.428711	38.280903
501.547455	1001.229126	21237.435547	8883.632813	38.951981
501.899231	987.576050	21189.650391	8701.591797	38.184277
502.250885	932.963501	21080.423828	8601.468750	38.061893
502.602600	957.994263	20941.617188	8799.438477	39.239353
502.954193	930.687988	20843.771484	8678.835938	38.909836
503.305786	1026.259888	20861.974609	8656.081055	38.465069
503.657379	932.963501	20909.759766	8710.693359	38.933819
504.008820	971.647400	20918.863281	8708.417969	38.786217
504.360291	994.402588	21096.353516	9054.296875	40.095085
504.711700	994.402588	21253.365234	8838.123047	38.717285
505.063080	946.616638	21226.058594	8883.632813	39.138237
505.414368	951.167725	21146.414063	8835.847656	39.042255
505.765656	1037.637451	21053.119141	8742.550781	38.494766
506.116943	932.963501	21353.486328	8719.795898	38.132385
506.468109	960.269775	20693.585938	8610.570313	38.768448
506.819305	989.851563	20880.179688	8851.776367	39.526371
507.170410	1023.984375	20930.240234	8644.703125	38.283035
507.521484	978.473938	20877.904297	8753.928711	39.073757
507.872559	1021.708862	21073.597656	8926.868164	39.423515
508.223480	967.096313	21073.597656	8840.398438	39.157990
508.574493	885.177612	21262.466797	8897.286133	39.318813
508.925385	994.402588	21788.111328	9029.266602	38.640842
509.276245	946.616638	21926.917969	9067.950195	38.709328
509.627045	939.790100	22284.175781	9311.430664	39.221748
509.977814	926.136963	22739.279297	9468.442383	39.161278
510.328613	1014.882263	22832.576172	9579.942383	39.257408
510.679260	1010.331238	22991.861328	9582.217773	38.995861
511.029999	987.576050	23171.628906	9627.728516	38.947582
511.380585	1017.157776	23201.210938	9675.514648	39.029644
511.731140	960.269775	23362.771484	9725.576172	39.126465
512.081726	1008.055725	23556.191406	9827.974609	39.115959
512.432129	1039.912964	23692.722656	9962.230469	39.387241
512.782654	978.473938	24061.357422	10048.700195	39.294167
513.133057	955.718750	23738.232422	10039.597656	39.872154
513.483398	989.851563	23968.060547	10164.750977	39.928696
513.833801	983.024963	24152.376953	10050.975586	39.137695
514.183960	1026.259888	23189.832031	9825.699219	39.702263
514.534302	983.024963	23406.007813	9761.984375	39.151611
514.884460	946.616638	23410.558594	9800.667969	39.414509
515.234619	953.443237	23091.984375	9823.422852	40.065781
515.584717	996.678101	23228.515625	9643.657227	38.894577
515.934753	898.830688	23228.515625	9771.085938	39.733006
516.284851	932.963501	23522.058594	9884.862305	39.629292
516.634766	948.892151	23239.894531	9823.422852	39.812164
516.984741	964.820801	24375.378906	10082.833008	38.948288
517.334595	1028.535400	24841.861328	10556.140625	40.009552
517.684448	994.402588	25497.210938	10902.020508	40.434624
518.034363	1014.882263	26805.634766	11204.664063	39.509441
518.384094	937.514587	27913.814453	11545.992188	39.325176
518.733826	969.371887	29092.533203	11850.912109	38.692448
519.083496	978.473938	29463.443359	12194.515625	39.375301
519.433167	962.545288	29993.640625	12280.985352	38.987301
519.782776	937.514587	29716.025391	12196.791016	39.123901
520.132324	944.341125	29001.511719	11848.636719	38.864559
520.481873	944.341125	28471.316406	11866.840820	39.679260
520.831299	1049.015137	27925.191406	11591.502930	39.226147
521.180786	930.687988	26867.074219	11104.541992	39.226181
521.530151	998.953613	26491.613281	11402.634766	40.810497
521.879517	1019.433350	26300.468750	10933.877930	39.216923
522.228882	953.443237	26352.806641	10908.846680	39.195484
522.578064	987.576050	25906.804688	10756.386719	39.201897
522.927307	930.687988	26020.580078	10899.745117	39.733356
523.276489	935.239075	25786.201172	10840.581055	39.858986
523.625610	976.198425	26459.755859	10813.274414	38.601662
523.974792	992.127075	27005.880859	11200.113281	39.240726
524.323792	889.728638	27486.015625	11300.236328	39.142712
524.672852	1012.606750	27542.904297	11796.299805	40.646713
525.021790	992.127075	28767.134766	11941.933594	39.423237
525.370728	1003.504700	30485.152344	12726.988281	39.765358
525.719604	973.922913	31427.218750	13323.173828	40.551445
526.068420	919.310425	33479.738281	14058.167969	40.352226
526.417297	932.963501	35088.531250	14536.027344	39.826782
526.765991	951.167725	35894.066406	14674.833984	39.274551
527.114746	964.820801	37357.226563	15348.387695	39.523537
527.463379	1019.433350	38074.015625	15571.388672	39.271675
527.812012	976.198425	40579.363281	16868.435547	40.128708
528.160706	996.678101	44131.449219	18092.666016	39.633892
528.509155	1012.606750	49189.933594	20092.849609	39.604195
528.857727	1062.668213	53458.808594	22759.759766	41.409714
529.206177	951.167725	56300.937500	24186.509766	41.979111
529.554565	1003.504700	56191.710938	24134.173828	41.912342
529.902893	994.402588	54935.625000	23317.261719	41.383675
530.251221	957.994263	52339.253906	21674.335938	40.318867
530.599548	1008.055725	48313.859375	20058.716797	40.271294
530.947876	951.167725	44802.730469	18463.576172	39.935654
531.296021	914.759338	41305.253906	16941.251953	39.678871
531.644165	1017.157776	38961.468750	15835.349609	39.052471
531.992249	980.749451	37025.000000	15325.632813	39.797981
532.340454	962.545288	36335.515625	14724.895508	38.906406
532.688354	983.024963	36740.558594	15211.856445	39.792538
533.036438	951.167725	37864.667969	15252.816406	38.743679
533.384338	967.096313	39432.500000	16463.392578	40.286324
533.732239	1012.606750	41605.621094	16998.140625	39.380013
534.080139	932.963501	42103.960938	17694.449219	40.711880
534.427917	946.616638	41940.125000	17207.488281	39.666946
534.775757	932.963501	39448.429688	16203.983398	39.649059
535.123474	1033.086426	38074.015625	15541.806641	39.169430
535.471191	896.555176	35598.246094	14438.179688	39.022953
535.818848	1019.433350	34287.546875	14119.606445	39.377563
536.166382	989.851563	33807.414063	13678.155273	38.663151
536.513977	921.585938	33406.921875	13964.871094	40.151302
536.861511	946.616638	34207.902344	14026.310547	39.324081
537.208984	1030.810913	33928.015625	13873.850586	39.039913
537.556396	939.790100	33862.023438	13894.330078	39.348907
537.903809	976.198425	32872.171875	13584.859375	39.530575
538.251160	935.239075	32066.638672	13066.040039	38.966446
538.598389	1001.229126	30960.736328	13038.734375	40.179249
538.945740	1046.739624	29486.199219	12581.354492	40.558491
539.292969	969.371887	29192.656250	12358.353516	40.353138
539.640137	898.830688	29256.371094	12121.699219	39.576309
539.987244	946.616638	29422.484375	12365.179688	40.099091
540.334351	951.167725	30228.017578	12551.772461	39.623814
540.681458	994.402588	32282.814453	13364.133789	39.534546
541.028442	978.473938	35184.101563	14615.669922	39.868282
541.375366	971.647400	38706.609375	16461.117188	41.048061
541.722290	960.269775	41466.816406	17573.847656	41.014549
542.069153	978.473938	43143.875000	18345.248047	41.187260
542.416016	1012.606750	43473.824219	18456.750000	41.082531
542.762756	989.851563	42204.085938	17696.724609	40.536659
543.109558	944.341125	40850.148438	17027.722656	40.303360
543.456299	894.279663	38672.476563	16365.545898	40.952900
543.802917	951.167725	37111.468750	15689.715820	40.758919
544.149536	962.545288	35668.789063	14859.150391	40.040653
544.496094	985.300537	33263.562500	13912.534180	40.049347
544.842651	1014.882263	31766.269531	13341.378906	40.084362
545.189148	912.483826	29968.609375	12767.947266	40.801945
545.535583	917.034912	29158.523438	12622.313477	41.447102
545.882019	960.269775	28459.939453	12665.548828	42.565163
546.228333	962.545288	27904.710938	12681.477539	43.496624
546.574707	967.096313	28334.785156	12688.303711	42.828632
546.920898	948.892151	28414.427734	12572.251953	42.319798
547.267212	1010.331238	28339.335938	12255.955078	41.149044
547.613342	1001.229126	27868.302734	12397.037109	42.415512
547.959473	1021.708862	27856.925781	12151.281250	41.473755
548.305664	914.759338	27094.626953	11666.594727	41.069096
548.651611	1033.086426	25761.171875	11113.643555	40.765617
548.997742	992.127075	24564.246094	10549.314453	40.544456
549.343689	946.616638	23660.865234	10114.690430	40.362659
549.689575	951.167725	22741.554688	9714.198242	40.215122
550.035522	896.555176	21897.335938	9261.370117	39.830967
550.381287	1001.229126	21128.210938	8963.276367	39.559071
550.727173	1017.157776	21094.078125	8644.703125	37.991611
551.072876	983.024963	20452.380859	8360.263672	37.891541
551.418640	987.576050	20293.093750	8501.345703	38.920322
551.764282	923.861450	20463.757813	8269.242188	37.591709
552.109863	967.096313	20309.023438	8273.793945	37.776470
552.455505	994.402588	20861.974609	8223.732422	36.387589
552.801025	1008.055725	20846.046875	8419.426758	37.359486
553.146545	969.371887	21210.128906	8587.815430	37.639122
553.491943	953.443237	21075.873047	8701.591797	38.505035
553.837341	992.127075	21464.988281	8631.050781	37.312439
554.182800	996.678101	21221.507813	8526.375977	37.229969
554.528015	1010.331238	20670.830078	8237.385742	36.759266
554.873352	964.820801	19983.623047	8178.221680	37.927734
555.218628	978.473938	20179.318359	7996.180176	36.548946
555.563721	935.239075	19756.072266	7918.812500	37.105545
555.908875	987.576050	19323.722656	7907.434570	37.738892
556.254028	930.687988	19057.486328	7682.158203	37.245796
556.599121	942.065613	18859.515625	7536.524902	36.804676
556.944031	903.381775	18745.740234	7381.789551	36.309143
557.289063	996.678101	18666.097656	7356.758789	35.994846
557.633972	960.269775	18704.781250	7365.860840	36.098999
557.978882	969.371887	18593.281250	7399.993652	36.488052
558.323792	994.402588	18352.076172	7117.829102	35.277924
558.668518	998.953613	17846.910156	7104.175781	36.237167
559.013306	1003.504700	18176.859375	7149.686523	35.789055
559.358032	987.576050	17931.103516	6953.991699	35.213539
559.702637	1014.882263	18049.431641	7015.430664	35.225754
560.047363	994.402588	18272.431641	7090.522949	35.282497
560.391846	1019.433350	18047.156250	7056.390137	35.453697
560.736450	964.820801	17926.552734	7008.604004	35.631874
561.080933	948.892151	18256.503906	7111.002441	35.603470
561.425354	939.790100	18092.666016	7074.594238	35.765457
561.769775	957.994263	18461.300781	7040.461426	34.750389
562.114136	1012.606750	18368.003906	7090.522949	35.020325
562.458496	1001.229126	18374.830078	7035.910156	34.734772
562.802673	951.167725	18456.750000	7056.390137	34.875862
563.146912	980.749451	18149.554688	6985.848633	34.976803
563.491150	946.616638	18003.919922	7176.992676	36.526150
563.835266	980.749451	18181.412109	6942.613770	34.660667
564.179443	948.892151	18167.757813	6933.511719	34.756180
564.523438	894.279663	18333.871094	6815.184570	33.950935
564.867493	973.922913	18072.185547	6917.583008	34.761780
565.211426	1003.504700	18170.033203	7113.277832	35.591194
565.555359	928.412476	18882.271484	7019.981445	33.929020
565.899231	987.576050	19184.916016	7327.176758	34.838062
566.243042	1008.055725	19794.755859	7343.105469	33.720932
566.586914	973.922913	20065.542969	7502.392090	34.195473
566.930603	998.953613	20318.125000	7693.535645	34.652531
567.274292	989.851563	20243.033203	7757.250488	35.149509
567.617981	978.473938	20281.716797	7529.698242	33.938465
567.961609	996.678101	20126.982422	7445.503906	33.709999
568.305237	951.167725	19726.490234	7252.084961	33.559566
568.648682	1021.708862	19574.029297	7174.717285	33.165707
568.992188	955.718750	19182.640625	7188.370117	34.194756
569.335632	969.371887	18859.515625	7076.869629	34.138893
569.679016	1026.259888	18820.832031	6992.675293	33.529411
570.022461	919.310425	18934.609375	6967.644531	33.573318
570.365662	939.790100	18818.556641	6760.572266	32.556957
570.708984	969.371887	18775.322266	6931.236328	33.482426
571.052185	942.065613	19280.488281	6917.583008	32.584686
571.395386	989.851563	19175.814453	7165.615234	33.958958
571.738525	1010.331238	19815.234375	7181.543457	32.817039
572.081604	1001.229126	20229.380859	7324.901367	32.887573
572.424683	978.473938	20372.738281	7527.422852	33.767452
572.767578	1039.912964	20791.433594	7345.381348	31.923962
573.110596	1062.668213	20513.820313	7306.697266	32.101078
573.453552	962.545288	20450.105469	7454.605957	33.313869
573.796387	1033.086426	20202.074219	7306.697266	32.727917
574.139282	948.892151	20154.287109	6985.848633	31.433651
574.481995	962.545288	19899.429688	7176.992676	32.816628
574.824768	1008.055725	19742.417969	6992.675293	31.944614
575.167480	992.127075	19840.265625	7099.625000	32.403721
575.510132	980.749451	19314.621094	6878.899414	32.170784
575.852722	894.279663	19410.193359	7024.532715	33.108021
576.195251	967.096313	19118.925781	6653.623047	31.327568
576.537842	1014.882263	19159.884766	6801.531738	31.891148
576.880188	948.892151	19023.353516	6671.827148	31.663103
577.222717	998.953613	18404.412109	6512.540527	31.677343
577.565063	1021.708862	17997.093750	6462.479004	32.050938
577.907410	1012.606750	17999.369141	6332.774414	31.319492
578.249756	953.443237	17130.121094	6109.773438	31.875088
578.591919	964.820801	16936.701172	6134.804199	32.369282
578.934204	955.718750	16602.199219	5952.762207	31.937172
579.276306	1005.780212	16279.076172	5868.568359	31.838499
579.618469	937.514587	15960.502930	5766.169922	32.141777
579.960571	928.412476	15962.778320	5547.719727	30.724987
580.302551	1014.882263	15250.540039	5406.637207	30.850382
580.644531	994.402588	15227.785156	5595.505859	32.326141
580.986511	1044.463989	15332.458984	5377.055664	30.323301
581.328369	901.106262	15218.683594	5290.585938	30.657976
581.670227	983.024963	15364.316406	5258.728516	29.731014
582.012024	985.300537	15104.907227	5290.585938	30.491537
582.353821	942.065613	14995.681641	5329.269531	31.217617
582.695496	1005.780212	15050.294922	5210.942871	29.941673
583.037231	1026.259888	14809.089844	5106.268555	29.602112
583.378845	957.994263	14868.252930	5090.339844	29.707180
583.720398	901.106262	14608.843750	4937.880371	29.448874
584.062012	948.892151	14415.423828	5040.278809	30.381889
584.403442	946.616638	14595.190430	5081.237793	30.293428
584.744934	1028.535400	14542.853516	5085.789063	30.021889
585.086365	953.443237	14447.281250	5038.002930	30.269814
585.427734	957.994263	14344.882813	4917.400391	29.576748
585.768982	948.892151	14183.321289	4849.134766	29.470427
586.110291	973.922913	14297.097656	4974.288574	30.025620
586.451599	896.555176	14103.677734	4969.737305	30.840797
586.792725	971.647400	14470.037109	4760.389648	28.068106
587.133850	1010.331238	13987.625977	4774.042480	29.002277
587.474915	971.647400	14376.740234	4796.797852	28.535053
587.815979	989.851563	14358.536133	4819.553223	28.646811
588.157043	939.790100	14549.679688	4849.134766	28.724295
588.497925	926.136963	14408.597656	4817.277344	28.860758
588.838867	1028.535400	14549.679688	4753.562988	27.549646
589.179749	1074.045776	14492.791992	4710.328125	27.098524
589.520569	955.718750	14941.069336	4812.726563	27.578915
589.861450	1023.984375	14979.753906	4817.277344	27.180822
590.202087	951.167725	14902.385742	4926.502441	28.494535
590.542847	964.820801	15148.141602	4810.451172	27.113752
590.883484	969.371887	14909.211914	4673.919922	26.575256
591.224121	930.687988	14781.783203	4767.216309	27.698374
591.564636	901.106262	14888.732422	4844.583984	28.192617
591.905151	962.545288	14827.293945	4733.083496	27.195141
592.245667	976.198425	14563.333008	4653.439941	27.064142
592.585999	1001.229126	14495.067383	4676.195313	27.234404
592.926453	987.576050	14278.892578	4512.357910	26.519432
593.266724	971.647400	14520.098633	4598.827637	26.771917
593.607056	1005.780212	14235.658203	4519.184082	26.556585
593.947388	1028.535400	14319.852539	4587.449707	26.776234
594.287476	1049.015137	14483.689453	4582.898926	26.304203
594.627686	989.851563	14633.874023	4535.112793	25.983988
594.967773	948.892151	15000.233398	4469.123047	25.052633
595.307861	1010.331238	15293.775391	4553.316895	24.804840
595.647888	946.616638	15063.947266	4607.929688	25.934881
595.987854	1001.229126	15334.734375	4667.093262	25.575491
596.327820	998.953613	15628.277344	4703.501465	25.322754
596.667725	853.320313	16201.708008	4783.144531	25.604151
597.007568	939.790100	16556.689453	4906.022949	25.397057
597.347351	1008.055725	17216.589844	4830.930664	23.585569
597.687073	1023.984375	17466.898438	5160.881348	25.159147
598.026794	962.545288	17407.734375	4960.635254	24.311607
598.366455	951.167725	16975.384766	5022.074219	25.404715
598.706116	937.514587	16424.708984	4792.246582	24.889801
599.045654	980.749451	15976.431641	4637.511230	24.385429
599.385193	989.851563	15025.263672	4398.581543	24.286640
599.724731	978.473938	14802.262695	4348.520020	24.378599
600.064087	912.483826	14770.405273	4284.805664	24.334974
600.403564	971.647400	14037.687500	4023.120850	23.354233
600.742920	921.585938	13980.799805	4080.008789	24.185398
601.082153	955.718750	13789.656250	3916.171387	23.067377
601.421387	926.136963	13996.728516	4002.641113	23.537603
601.760620	973.922913	13527.970703	3827.426025	22.729746
602.099854	946.616638	13871.575195	3922.997803	23.028166
602.438843	973.922913	13762.349609	3852.456787	22.508898
602.778015	937.514587	13960.320313	3979.885986	23.361874
603.117065	1042.188477	14617.945313	4145.999023	22.862892
603.456055	873.799988	14827.293945	4073.182129	22.928896
603.794983	983.024963	15059.396484	4193.784668	22.809570
604.133850	969.371887	15737.501953	4252.948242	22.234205
604.472778	996.678101	16229.014648	4334.867188	21.915146
604.811584	953.443237	16706.873047	4555.592773	22.865810
605.150330	948.892151	17339.468750	4580.623535	22.157436
605.489075	948.892151	17318.988281	4551.041504	22.004450
605.827698	948.892151	17328.091797	4655.715332	22.631285
606.166382	971.647400	16806.996094	4500.979980	22.287683
606.504883	985.300537	16376.922852	4280.254395	21.407450
606.843445	985.300537	16031.043945	4191.509277	21.309740
607.181946	876.075500	15546.358398	4193.784668	22.615168
607.520386	951.167725	14961.548828	4009.467773	21.828814
607.858826	942.065613	15004.784180	3891.140625	20.970873
608.197083	1012.606750	14456.383789	3886.589600	21.377792
608.535461	971.647400	14429.077148	3847.905762	21.373014
608.873718	989.851563	14265.240234	3936.650879	22.197462
609.211914	935.239075	14479.138672	3902.518066	21.908602
609.550171	1014.882263	14834.120117	4114.141602	22.427135
609.888245	971.647400	15468.990234	4105.039551	21.613562
610.226318	935.239075	15637.378906	4075.457764	21.358923
610.564392	1023.984375	15905.890625	4089.110840	20.596329
610.902344	1019.433350	15432.582031	4111.866211	21.455637
611.240295	955.718750	15268.744141	3959.406250	20.985693
611.578247	1017.157776	14916.039063	3977.610352	21.299936
611.916138	1008.055725	14595.190430	3893.416016	21.235973
612.253845	964.820801	14128.708984	3831.977051	21.780466
612.591675	953.443237	13939.840820	3740.956299	21.464869
612.929382	955.718750	13598.512695	3581.669678	20.770338
613.267090	989.851563	13236.704102	3577.118652	21.125977
613.604736	985.300537	13170.714844	3579.394287	21.288515
613.942261	955.718750	12959.090820	3595.322754	21.990520
614.279785	971.647400	12804.355469	3424.658691	20.730768
614.617310	955.718750	12508.538086	3490.648926	21.942091
614.954712	921.585938	12353.802734	3292.678711	20.740446
615.292175	973.922913	12262.781250	3367.770752	21.205402
615.629517	944.341125	12397.037109	3292.678711	20.504671
615.966797	1014.882263	12265.056641	3310.882813	20.408577
616.304138	1012.606750	12312.842773	3269.923340	19.975836
616.641296	967.096313	12255.955078	3329.086914	20.923203
616.978516	1014.882263	11978.341797	3131.116699	19.302614
617.315552	971.647400	12001.096680	3181.177979	20.033009
617.652771	923.861450	12342.424805	3201.657715	19.948187
617.989685	998.953613	12296.914063	3233.515137	19.778450
618.326721	994.402588	12331.046875	3249.443604	19.891609
618.663696	987.576050	12121.699219	3288.127441	20.662169
619.000549	1033.086426	12169.485352	3142.494141	18.941561
619.337463	1001.229126	12246.852539	3324.535889	20.659653
619.674194	1008.055725	11966.963867	3174.351563	19.767443
620.010986	964.820801	12244.577148	3144.769775	19.326206
620.347778	971.647400	12044.332031	3165.249512	19.810932
620.684387	942.065613	11561.920898	3215.310791	21.405613
621.020996	951.167725	11787.197266	3128.841064	20.096600
621.357605	910.208313	11871.391602	3174.351563	20.656012
621.694214	967.096313	11607.431641	3033.269287	19.418306
622.030579	935.239075	11571.023438	3112.912354	20.474968
622.367065	1014.882263	11691.625977	3133.392090	19.842283
622.703430	969.371887	11611.982422	3108.361328	20.098354
623.039795	944.341125	11659.768555	3144.769775	20.535147
623.376160	896.555176	11596.053711	3115.187988	20.735859
623.712402	935.239075	11530.063477	3030.993652	19.780930
624.048645	1008.055725	11493.655273	3167.524902	20.594618
624.384766	994.402588	11434.492188	3046.922363	19.659983
624.720886	939.790100	11370.777344	3096.983887	20.680630
625.057007	1019.433350	11778.095703	2999.136475	18.401016
625.392944	944.341125	11748.513672	3137.943115	20.303286
625.729004	923.861450	11625.635742	3092.432861	20.263660
626.064941	1023.984375	11935.106445	3131.116699	19.311785
626.400818	935.239075	12192.240234	3206.208740	20.173843
626.736633	932.963501	12531.292969	3244.892578	19.933296
627.072449	932.963501	12590.457031	3272.198975	20.066366
627.408264	1003.504700	12597.283203	3269.923340	19.548576
627.743896	957.994263	12758.844727	3331.362549	20.111839
628.079590	998.953613	12790.702148	3297.229736	19.490547
628.415161	992.127075	12765.671875	3242.617188	19.114805
628.750793	1014.882263	12262.781250	3206.208740	19.482094
629.086365	955.718750	12228.648438	2985.483398	18.005653
629.421753	942.065613	12071.637695	3162.973877	19.955019
629.757263	919.310425	11805.402344	3112.912354	20.150501
630.092651	960.269775	11928.280273	3078.779541	19.315351
630.427917	960.269775	11348.022461	2951.350586	19.167580
630.763184	976.198425	11402.634766	3117.463379	20.536880
631.098511	942.065613	11309.338867	2937.697266	19.249338
631.433716	1019.433350	11099.990234	2962.728027	19.277653
631.768799	992.127075	11061.306641	2965.003662	19.593220
632.103943	985.300537	10747.285156	3042.371338	21.072260
632.438965	1026.259888	10865.612305	2862.605225	18.663275
632.773987	985.300537	10799.622070	2764.757813	18.131231
633.109070	983.024963	10578.896484	2894.462402	19.919374
633.443848	994.402588	10308.109375	2962.728027	21.133642
633.778870	1021.708862	10647.162109	2894.462402	19.456264
634.113708	1005.780212	10603.926758	2776.135498	18.444761
634.448425	926.136963	10788.244141	2962.728027	20.650667
634.783264	994.402588	10917.949219	2903.564453	19.238705
635.117859	1003.504700	10549.314453	2839.849854	19.237186
635.452576	951.167725	10804.172852	2869.431641	19.468821
635.787170	953.443237	10628.958008	2871.707275	19.825964
636.121704	964.820801	10376.375000	2805.717041	19.559959
636.456177	957.994263	10394.579102	2739.727051	18.881119
636.790588	987.576050	10280.802734	2771.584229	19.196865
637.125122	978.473938	10116.965820	2685.114502	18.675299
637.459412	971.647400	10062.352539	2607.746826	17.997498
637.793762	957.994263	9825.699219	2666.910400	19.271233
638.128052	944.341125	9802.943359	2705.594238	19.881840
638.462280	957.994263	9695.994141	2566.787354	18.411457
638.796509	892.004150	9673.239258	2696.492188	20.549364
639.130615	985.300537	9468.442383	2641.879639	19.527897
639.464722	998.953613	9620.902344	2635.052979	18.975981
639.798767	955.718750	9500.299805	2666.910400	20.026630
640.132751	1035.361938	9240.889648	2716.971924	20.493626
640.466736	1033.086426	9331.911133	2673.737061	19.769676
640.800598	957.994263	9229.512695	2628.226563	20.192572
641.134521	980.749451	8958.725586	2475.766602	18.739304
641.468262	989.851563	9045.195313	2650.981689	20.621468
641.802063	978.473938	9195.379883	2530.379150	18.886734
642.135803	917.034912	8910.939453	2480.317627	19.555935
642.469421	942.065613	8888.184570	2512.175049	19.759449
642.803101	971.647400	8976.929688	2466.664551	18.675383
643.136658	971.647400	8669.734375	2505.348389	19.923143
643.470215	969.371887	8742.550781	2396.123291	18.354801
643.803711	969.371887	8712.968750	2450.735840	19.130180
644.137085	939.790100	8847.224609	2475.766602	19.424461
644.470581	964.820801	8726.622070	2482.593262	19.554384
644.803833	985.300537	8772.132813	2459.837891	18.936293
645.137207	1001.229126	8642.427734	2391.572266	18.195354
645.470459	985.300537	8672.009766	2475.766602	19.390171
645.803589	996.678101	8560.508789	2398.398926	18.531891
646.136780	1039.912964	8772.132813	2448.460449	18.216599
646.469849	1012.606750	8519.549805	2425.705078	18.823887
646.802979	998.953613	8656.081055	2409.776611	18.424965
647.135986	946.616638	8826.745117	2409.776611	18.567717
647.468994	969.371887	8799.438477	2478.042236	19.267658
647.801941	989.851563	8628.774414	2471.215576	19.392315
648.134766	939.790100	8703.867188	2491.695313	19.988277
648.467651	1019.433350	8990.583008	2462.113525	18.098772
648.800354	992.127075	8685.663086	2466.664551	19.165926
649.133179	937.514587	8667.458984	2564.511963	21.047983
649.465881	1060.392700	8790.336914	2493.970703	18.545774
649.798462	917.034912	8699.316406	2407.500977	19.152046
650.131104	976.198425	8533.203125	2459.837891	19.632637
650.463623	992.127075	8815.367188	2487.144287	19.109949
650.796143	973.922913	8724.346680	2532.654541	20.111567
651.128662	1008.055725	8681.112305	2446.184814	18.742584
651.461060	989.851563	8763.030273	2503.072998	19.467215
651.793396	907.932800	8986.031250	2409.776611	18.591551
652.125732	951.167725	8865.428711	2375.643799	17.998852
652.458008	976.198425	8790.336914	2468.940186	19.103086
652.790222	1005.780212	8724.346680	2455.286865	18.779480
653.122437	921.585938	8772.132813	2464.388916	19.652172
653.454529	914.759338	8774.408203	2423.429688	19.195137
653.786621	935.239075	8460.386719	2493.970703	20.713636
654.118713	957.994263	8533.203125	2441.633789	19.585461
654.450623	1017.157776	8544.581055	2293.724854	16.958885
654.782654	946.616638	8489.967773	2418.878662	19.517347
655.114502	989.851563	8453.559570	2457.562500	19.664635
655.446350	1026.259888	8235.109375	2416.603027	19.286615
655.778198	973.922913	8526.375977	2389.296875	18.740587
656.109863	1001.229126	8405.773438	2459.837891	19.698832
656.441650	985.300537	8310.202148	2393.847900	19.229574
656.773254	1023.984375	8273.793945	2475.766602	20.025108
657.104919	962.545288	8291.998047	2296.000488	18.193108
657.436462	998.953613	8255.589844	2450.735840	20.006269
657.767944	957.994263	8357.988281	2514.450439	21.033209
658.099548	983.024963	8451.284180	2393.847900	18.890921
658.430908	1058.117188	8535.478516	2332.408936	17.041998
658.762268	919.310425	8840.398438	2421.154053	18.960068
659.093628	1014.882263	9081.603516	2612.297852	19.802538
659.424927	944.341125	9284.125000	2755.655762	21.718964
659.756226	989.851563	9589.044922	2632.777588	19.105583
660.087341	953.443237	9805.218750	2644.155273	19.100260
660.418518	983.024963	9766.535156	2826.196777	20.984457
660.749573	937.514587	9650.483398	2650.981689	19.665709
661.080627	964.820801	9541.258789	2687.390137	20.084906
661.411621	971.647400	9347.839844	2712.420898	20.782396
661.742554	971.647400	9270.471680	2614.573486	19.797094
662.073547	994.402588	9024.715820	2616.848877	20.204021
662.404297	937.514587	8872.255859	2516.726074	19.902494
662.735229	1030.810913	8378.467773	2439.358398	19.170023
663.065979	953.443237	8606.019531	2487.144287	20.041630
663.396667	937.514587	8419.426758	2437.082764	20.042578
663.727417	1028.535400	8153.190918	2496.246338	20.600449
664.057922	998.953613	7993.904785	2387.021240	19.843849
664.388611	939.790100	8037.139648	2430.256104	21.000319
664.719116	992.127075	7868.750977	2336.959961	19.556585
665.049622	978.473938	7720.842285	2425.705078	21.464731
665.380005	953.443237	7732.219727	2482.593262	22.557907
665.710388	994.402588	7682.158203	2264.143311	18.986052
666.040771	946.616638	7764.077148	2366.541748	20.827770
666.371033	1001.229126	7679.882813	2350.613037	20.204430
666.701294	992.127075	7459.157227	2423.429688	22.132301
667.031555	967.096313	7568.382324	2318.755615	20.475697
667.361633	964.820801	7711.740234	2252.765625	19.089376
667.691772	1019.433350	7561.555664	2323.306641	19.930433
668.021790	980.749451	7399.993652	2225.459229	19.390285
668.351807	932.963501	7816.414063	2350.613037	20.595041
668.681763	962.545288	7463.708008	2293.724854	20.476023
669.011719	951.167725	7563.831055	2289.173828	20.233997
669.341614	942.065613	7561.555664	2298.276123	20.488140
669.671387	960.269775	7700.362305	2336.959961	20.425388
670.001221	930.687988	7638.923340	2339.235352	20.997286
670.330933	944.341125	7645.750000	2309.653564	20.373514
670.660583	946.616638	7643.474609	2255.041016	19.537884
670.990173	944.341125	7677.607422	2364.266113	21.088207
671.319763	994.402588	7420.473145	2427.980713	22.308784
671.649292	960.269775	7495.565430	2198.153076	18.941504
671.978821	960.269775	7327.176758	2318.755615	21.336668
672.308289	973.922913	7313.523926	2361.990479	21.895189
672.637695	980.749451	7390.891602	2348.337402	21.334751
672.966980	1026.259888	7281.666504	2214.081787	18.988724
673.296326	1012.606750	7390.891602	2380.194824	21.441315
673.625610	967.096313	7277.115723	2277.796387	20.771729
673.954773	994.402588	7161.063965	2316.480225	21.439116
674.283936	1042.188477	7283.941895	2332.408936	20.670801
674.613037	971.647400	6972.195801	2273.245361	21.691317
674.942078	1014.882263	7085.971680	2296.000488	21.101950
675.271118	926.136963	7136.033203	2305.102539	22.205935
675.600098	1021.708862	7060.940918	2227.734863	19.969858
675.928955	957.994263	7045.012207	2239.112549	21.046730
676.257813	960.269775	7099.625000	2227.734863	20.644920
676.586670	948.892151	7008.604004	2327.857666	22.756289
676.915466	1008.055725	7124.655762	2182.224365	19.196428
677.244141	992.127075	7056.390137	2266.418701	21.013132
677.572876	962.545288	7017.706055	2257.316650	21.382940
677.901489	964.820801	6940.338379	2291.449463	22.201067
678.230042	1028.535400	6935.787598	2325.582275	21.956858
678.558594	1019.433350	7029.083984	2355.164063	22.226429
678.887085	937.514587	7042.736816	2332.408936	22.847559
679.215515	942.065613	6994.951172	2366.541748	23.533834
679.543945	992.127075	7279.391113	2487.144287	23.778502
679.872253	1019.433350	7113.277832	2475.766602	23.898430
680.200562	1008.055725	7343.105469	2393.847900	21.875002
680.528809	962.545288	7418.197754	2439.358398	22.876280
680.856995	930.687988	7618.443848	2416.603027	22.218441
681.185120	939.790100	7864.199707	2498.521729	22.510679
681.513306	957.994263	7850.546875	2507.624023	22.482668
681.841309	1046.739624	7707.188965	2459.837891	21.216261
682.169373	919.310425	7607.065918	2418.878662	22.422594
682.497314	1019.433350	7632.096680	2493.970703	22.298691
682.825134	887.453125	7557.004395	2384.745850	22.449677
683.153076	987.576050	7657.127441	2493.970703	22.586147
683.480896	978.473938	7379.514160	2380.194824	21.898331
683.808655	1008.055725	7454.605957	2505.348389	23.226263
684.136414	1028.535400	7099.625000	2380.194824	22.263868
684.464050	987.576050	7051.838867	2334.684326	22.213884
684.791626	962.545288	6812.909180	2289.173828	22.676001
685.119263	1001.229126	6810.633789	2305.102539	22.444183
685.446838	1085.423462	6724.164063	2330.133301	22.074251
685.774292	944.341125	6646.796387	2273.245361	23.304073
686.101685	935.239075	6769.674316	2334.684326	23.985960
686.429077	942.065613	6585.357422	2339.235352	24.758060
686.756348	907.932800	6553.500000	2270.969727	24.143488
687.083679	921.585938	6553.500000	2398.398926	26.222221
687.410950	989.851563	6546.673340	2325.582275	24.037674
687.738159	953.443237	6478.407715	2423.429688	26.606260
688.065308	964.820801	6696.857910	2371.092773	24.533546
688.392395	980.749451	6692.306641	2309.653564	23.266932
688.719421	978.473938	6592.183594	2323.306641	23.956223
689.046448	1003.504700	6635.418457	2330.133301	23.555557
689.373413	973.922913	6496.611816	2289.173828	23.815409
689.700317	939.790100	6512.540527	2300.551514	24.418131
690.027100	1028.535400	6726.439453	2434.807373	24.680511
690.353943	932.963501	6426.070801	2236.836914	23.736536
690.680725	953.443237	6305.468262	2259.592041	24.404760
691.007446	1012.606750	6284.988281	2257.316650	23.608116
691.334106	1026.259888	6002.823730	2275.520752	25.102880
691.660645	983.024963	6107.498047	2255.041016	24.822378
691.987244	1026.259888	6061.987305	2186.775391	23.045637
692.313721	1008.055725	5964.140137	2257.316650	25.206612
692.640259	996.678101	5895.874512	2104.856689	22.619600
692.966675	1074.045776	5838.986328	2179.948975	23.209171
693.293030	971.647400	5916.354004	2088.927979	22.595488
693.619324	1044.463989	5791.200684	2123.060791	22.722912
693.945618	969.371887	5925.456055	2143.540527	23.691462
694.271851	939.790100	5838.986328	2207.255127	25.870878
694.598083	973.922913	5609.158691	2066.172852	23.564066
694.924194	932.963501	5775.271973	2086.652588	23.825188
695.250244	967.096313	5593.229980	2098.030273	24.446632
695.576294	1003.504700	5732.037109	2118.509766	23.580364
695.902283	964.820801	5584.127930	2111.683350	24.827589
696.228210	928.412476	5625.087402	2173.122314	26.501938
696.554138	996.678101	5768.445313	2218.632813	25.608013
696.879944	939.790100	5852.639648	2098.030273	23.575731
697.205750	969.371887	5877.670410	2145.816162	23.968477
697.531433	951.167725	5952.762207	2209.530762	25.159237
697.857178	921.585938	6021.027832	2223.183838	25.524321
698.182739	987.576050	6155.283691	2250.489990	24.438572
698.508423	944.341125	6628.592285	2311.929199	24.059250
698.833984	971.647400	6787.878418	2475.766602	25.860720
699.159485	971.647400	6833.389160	2455.286865	25.310556
699.484924	973.922913	7113.277832	2532.654541	25.389177
699.810303	921.585938	7393.166992	2616.848877	26.195499
700.135681	939.790100	7190.645508	2564.511963	25.991993
700.460999	889.728638	7129.206543	2446.184814	24.945295
700.786255	973.922913	6958.542480	2359.715088	23.155895
701.111450	866.973450	6787.878418	2450.735840	26.748655
701.436646	969.371887	6494.336426	2355.164063	25.082375
701.761719	1060.392700	6360.080566	2273.245361	22.885359
702.086792	973.922913	6362.355957	2268.694336	24.028719
702.411865	987.576050	5970.966797	2118.509766	22.694061
702.736816	1001.229126	5791.200684	2123.060791	23.420424
703.061646	937.514587	5763.894043	2170.846924	25.553986
703.386536	1010.331238	5656.944824	2070.723877	22.820761
703.711365	1033.086426	5326.994141	2223.183838	27.715952
704.036194	1044.463989	5306.514648	2002.458252	22.477308
704.360901	1019.433350	5342.922852	1979.703125	22.210527
704.685547	1023.984375	5199.564941	2022.937988	23.923706
705.010132	994.402588	5279.208496	2068.448486	25.066385
705.334717	964.820801	5067.584961	2038.866699	26.178593
705.659302	973.922913	5163.156738	1988.805176	24.225964
705.983765	973.922913	4965.186523	1963.774414	24.800453
706.308228	980.749451	5119.921875	1984.254150	24.244091
706.632568	967.096313	5156.330078	1961.498901	23.737099
706.956909	953.443237	5042.554199	2072.999512	27.378965
707.281189	951.167725	5076.687012	1936.468262	23.883066
707.605408	939.790100	5067.584961	1843.171875	21.885336
707.929626	967.096313	4874.165527	1956.947876	25.334887
708.253784	892.004150	5144.952637	2054.795166	27.340822
708.577820	989.851563	5008.421387	1988.805176	24.858437
708.901855	964.820801	4999.319336	1966.049927	24.816692
709.225830	960.269775	5076.687012	1943.294800	23.880598
709.549805	1003.504700	5067.584961	2066.172852	26.147816
709.873718	971.647400	4937.880371	1954.672363	24.784853
710.197510	1005.780212	5188.187500	2098.030273	26.115343
710.521362	962.545288	5069.860352	2029.764526	25.983379
710.845093	1001.229126	5190.462891	2059.346436	25.258015
711.168701	989.851563	5320.167480	2025.213501	23.909616
711.492432	953.443237	5349.749512	1988.805176	23.550724
711.816040	1021.708862	5370.229004	1952.396851	21.402409
712.139587	923.861450	5486.280762	2079.825928	25.336655
712.463074	994.402588	5342.922852	2047.968750	24.228151
712.786499	946.616638	5361.126953	2084.376953	25.773193
713.109924	944.341125	5317.892090	2047.968750	25.234135
713.433350	948.892151	5358.851563	1943.294800	22.549021
713.756592	1055.841675	5122.197266	1970.601074	22.495806
714.079834	955.718750	5169.983398	2016.111450	25.161987
714.403015	1014.882263	5158.605469	1986.529663	23.448656
714.726196	996.678101	5188.187500	1936.468262	22.421284
715.049255	1012.606750	4992.492676	1972.876587	24.128075
715.372375	939.790100	4997.043457	2009.284912	26.360071
715.695435	960.269775	5049.380859	1979.703125	24.930439
716.018311	967.096313	5081.237793	1966.049927	24.280973
716.341248	923.861450	5044.829590	1963.774414	25.234674
716.664063	1026.259888	4994.768066	1943.294800	23.107800
716.987000	939.790100	5051.656250	1943.294800	24.405090
717.309692	989.851563	4906.022949	2050.244141	27.077276
717.632385	951.167725	4919.675781	1966.049927	25.573395
717.955078	948.892151	4667.093262	1929.641602	26.376987
718.277649	1005.780212	4710.328125	1827.243164	22.174446
718.600220	957.994263	4819.553223	1868.202637	23.571007
718.922791	1008.055725	4573.796875	1877.304688	24.377792
719.245300	985.300537	4587.449707	1831.794189	23.499683
719.567688	996.678101	4475.949219	1879.580200	25.376066
719.890015	976.198425	4548.766113	1686.160889	19.872610
720.212341	967.096313	4423.612305	1740.773438	22.383148
720.534607	937.514587	4428.163574	1854.549438	26.271185
720.856873	937.514587	4296.183105	1727.120239	23.509485
721.179016	937.514587	4232.468750	1777.181763	25.483425
721.501160	894.279663	4118.692871	1704.365112	25.123501
721.823242	953.443237	4184.682617	1722.569214	23.802816
722.145264	1064.943726	4068.631104	1702.089600	21.212122
722.467224	1003.504700	4109.590332	1752.151001	24.102564
722.789185	951.167725	4089.110840	1729.395752	24.800577
723.111023	951.167725	4102.764160	1686.160889	23.321297
723.432861	960.269775	4100.488281	1704.365112	23.695654
723.754578	948.892151	4089.110840	1722.569214	24.637680
724.076294	967.096313	3979.885986	1686.160889	23.867069
724.397949	946.616638	3925.273438	1597.415649	21.848742
724.719666	976.198425	3941.202148	1674.783325	23.561012
725.041260	985.300537	4109.590332	1586.037964	19.227968
725.362732	973.922913	3948.028564	1706.640625	24.636572
725.684265	914.759338	3988.988037	1670.232300	24.574390
726.005676	930.687988	4048.151611	1667.956787	23.649635
726.327087	928.412476	3988.988037	1608.793213	22.230482
726.648438	885.177612	4020.845215	1733.946899	27.068218
726.969666	976.198425	4200.611328	1731.671387	23.429785
727.290894	948.892151	4182.407227	1704.365112	23.363829
727.612061	1001.229126	4139.172363	1688.436401	21.899925
727.933228	964.820801	4277.979004	1695.262939	22.046703
728.254395	951.167725	4284.805664	1815.865601	25.938566
728.575378	987.576050	4248.397461	1770.355225	24.005583
728.896301	953.443237	4182.407227	1797.661377	26.145172
729.217285	1058.117188	4293.907715	1711.191650	20.182840
729.538147	1042.188477	4332.591797	1733.946899	21.023514
729.858948	992.127075	4237.019531	1790.834839	24.614305
730.179810	980.749451	4396.306152	1727.120239	21.852098
730.500549	957.994263	4268.876953	1781.732788	24.879725
730.821228	996.678101	4232.468750	1754.426514	23.417721
731.141846	998.953613	4293.907715	1722.569214	21.961327
731.462402	967.096313	4330.315918	1770.355225	23.883629
731.782898	1005.780212	4480.500488	1738.497925	21.087099
732.103455	942.065613	4555.592773	1881.855713	26.007557
732.423889	971.647400	4530.562012	1836.345337	24.296677
732.744263	983.024963	4359.897949	1779.457275	23.584906
733.064636	973.922913	4364.448730	1731.671387	22.348995
733.384888	901.106262	4473.673828	1784.008301	24.713375
733.705200	998.953613	4343.969238	1804.488037	24.081635
734.025330	978.473938	4353.071289	1795.385864	24.207685
734.345520	1033.086426	4439.541016	1786.283813	22.110889
734.665527	969.371887	4341.693848	1690.711914	21.390011
734.985596	932.963501	4218.815430	1683.885376	22.853186
735.305542	998.953613	4200.611328	1704.365112	22.032696
735.625549	994.402588	4000.365479	1679.334351	22.785769
735.945435	1010.331238	4114.141602	1654.303589	20.747801
736.265259	896.555176	4057.253662	1690.711914	25.125988
736.585083	905.657288	4036.773926	1758.977539	27.252905
736.904785	987.576050	3836.528076	1690.711914	24.680508
737.224426	962.545288	3932.099854	1736.222412	26.053640
737.544128	969.371887	3936.650879	1736.222412	25.843559
737.863708	978.473938	3891.140625	1636.099487	22.578125
738.183289	939.790100	3922.997803	1633.823975	23.264685
738.502808	951.167725	3984.437012	1706.640625	24.906225
738.822205	1005.780212	3954.855225	1622.446289	20.910492
739.141541	946.616638	3954.855225	1711.191650	25.416037
739.460938	1049.015137	3970.783691	1756.702026	24.221182
739.780212	994.402588	4123.243652	1706.640625	22.763638
740.099426	932.963501	3934.375488	1758.977539	27.520847
740.418640	987.576050	3979.885986	1713.467163	24.258553
740.737793	935.239075	4070.906738	1770.355225	26.632801
741.056885	957.994263	4050.427002	1765.804199	26.122152
741.375977	983.024963	4054.978027	1806.763550	26.814816
741.694946	953.443237	3888.864990	1731.671387	26.511629
742.013855	926.136963	3872.936523	1711.191650	26.640926
742.332703	976.198425	3877.487549	1695.262939	24.784311
742.651550	969.371887	3893.416016	1749.875488	26.692606
742.970398	878.351013	3672.690674	1665.681274	28.175898
743.289124	939.790100	3638.557861	1713.467163	28.667789
743.607788	971.647400	3800.119629	1649.752563	23.974257
743.926453	978.473938	3770.538086	1679.334351	25.101873
744.245056	994.402588	3704.547852	1554.180664	20.654911
744.563599	955.718750	3661.312988	1704.365112	27.670311
744.882141	944.341125	3718.200928	1538.252075	21.410994
745.200500	942.065613	3574.843262	1620.170776	25.756264
745.518860	983.024963	3659.037354	1638.375000	24.489798
745.837219	939.790100	3583.945313	1665.681274	27.452669
746.155518	951.167725	3542.985840	1629.272949	26.163303
746.473755	946.616638	3486.097900	1640.650513	27.329750
746.791992	998.953613	3681.792725	1558.731689	20.865137
747.110107	955.718750	3461.067139	1595.140137	25.522255
747.428162	985.300537	3618.078125	1601.966675	23.422644
747.746216	983.024963	3465.618164	1606.517700	25.114574
748.064148	1010.331238	3536.159424	1629.272949	24.504507
748.382080	1028.535400	3433.760986	1624.721802	24.787130
748.700073	987.576050	3383.699463	1642.926025	27.350426
749.017822	1014.882263	3531.608398	1658.854614	25.587702
749.335632	985.300537	3461.067139	1576.935913	23.897058
749.653320	1021.708862	3540.710449	1617.895264	23.667568
749.971008	921.585938	3583.945313	1638.375000	26.923077
750.288696	994.402588	3504.302002	1611.068726	24.569357
750.606262	921.585938	3561.189941	1624.721802	26.637930
750.923828	935.239075	3579.394287	1563.282837	23.752151
751.241272	946.616638	3545.261475	1633.823975	26.444836
751.558716	957.994263	3522.506104	1579.211426	24.223604
751.876038	983.024963	3508.853027	1535.976563	21.891893
752.193481	1001.229126	3497.475586	1622.446289	24.886049
752.510681	889.728638	3467.893799	1576.935913	26.654898
752.827942	957.994263	3431.485352	1565.558350	24.563017
753.145081	939.790100	3440.587402	1649.752563	28.389444
753.462219	955.718750	3495.199951	1654.303589	27.508959
753.779297	980.749451	3385.974854	1631.548462	27.057714
754.096375	951.167725	3404.179199	1592.864502	26.159550
754.413330	1012.606750	3431.485352	1567.833862	22.953905
754.730286	989.851563	3360.944336	1604.242188	25.911707
755.047119	1003.504700	3379.148438	1576.935913	24.137930
755.363892	1008.055725	3349.566650	1636.099487	26.822157
755.680725	919.310425	3370.046387	1626.997314	28.876507
755.997498	985.300537	3317.709229	1538.252075	23.707317
756.314148	978.473938	3308.607178	1597.415649	26.562502
756.630737	976.198425	3390.525879	1629.272949	27.049957
756.947327	998.953613	3356.393066	1633.823975	26.930506
757.263855	980.749451	3194.831299	1531.425537	24.871532
757.580261	1010.331238	3322.260254	1515.496826	21.850393
757.896729	996.678101	3324.535889	1581.486938	25.122189
758.213074	971.647400	3502.026611	1624.721802	25.809349
758.529419	1017.157776	3440.587402	1667.956787	26.854462
758.845642	971.647400	3436.036377	1652.028076	27.608494
759.161865	1046.739624	3547.536865	1606.517700	22.383984
759.478149	1010.331238	3445.138428	1608.793213	24.579441
759.794189	957.994263	3542.985840	1636.099487	26.232395
760.110229	987.576050	3529.332764	1558.731689	22.470900
760.426270	960.269775	3504.302002	1558.731689	23.524149
760.742249	978.473938	3413.281250	1601.966675	25.607477
761.058105	992.127075	3556.638916	1597.415649	23.602488
761.374023	971.647400	3568.016602	1633.823975	25.503946
761.689819	976.198425	3524.781738	1654.303589	26.607141
762.005554	1037.637451	3558.914551	1663.405762	24.819498
762.321289	932.963501	3561.189941	1624.721802	26.320345
762.636902	967.096313	3549.812500	1629.272949	25.638767
762.952515	1021.708862	3634.006836	1551.905151	20.296165
763.268127	937.514587	3686.343750	1636.099487	25.413908
763.583618	983.024963	3761.435791	1681.609863	25.143326
763.899048	992.127075	4152.825684	1861.375977	27.501795
764.214478	1019.433350	4612.480469	1897.784302	24.445850
764.529785	919.310425	4778.593750	1950.121338	26.709906
764.845093	964.820801	5006.145996	2068.448486	27.308559
765.160400	978.473938	4874.165527	2070.723877	28.037384
765.475586	964.820801	4874.165527	1913.713013	24.272411
765.790771	980.749451	4612.480469	1888.682251	25.000002
766.105835	973.922913	4434.990234	1900.059814	26.758707
766.420837	951.167725	4116.416992	1809.039063	27.102804
766.735840	935.239075	4082.284424	1788.559326	27.114965
767.050842	969.371887	3822.875000	1756.702026	27.591703
767.365662	1023.984375	3852.456787	1811.314575	27.835880
767.680542	992.127075	3643.108887	1733.946899	27.982832
767.995300	926.136963	3483.822266	1658.854614	28.647686
768.309998	969.371887	3520.230713	1601.966675	24.799286
768.624817	987.576050	3467.893799	1613.344238	25.229355
768.939392	951.167725	3506.577637	1702.089600	29.385574
769.254028	996.678101	3272.198975	1738.497925	32.599998
769.568481	969.371887	3281.301025	1608.793213	27.657478
769.882935	921.585938	3360.944336	1465.435425	22.294775
770.197388	992.127075	3274.474365	1606.517700	26.919245
770.511841	871.524475	3183.453613	1561.007324	29.822836
770.826172	923.861450	3183.453613	1556.456177	27.995968
771.140442	980.749451	3188.004639	1590.588989	27.628864
771.454651	989.851563	3185.729004	1574.660400	26.632126
771.768860	937.514587	3035.544678	1490.466064	26.355747
772.082886	992.127075	3172.075928	1490.466064	22.860125
772.397034	994.402588	3046.922363	1572.384888	28.159645
772.711060	935.239075	2994.585449	1499.568237	27.403313
773.025024	996.678101	3028.718262	1570.109375	28.219486
773.338928	919.310425	3062.851074	1586.037964	31.104033
773.652771	973.922913	3081.055176	1608.793213	30.129589
773.966614	1001.229126	2942.248291	1501.843750	25.791328
774.280457	971.647400	2962.728027	1497.292725	26.400003
774.594116	976.198425	2914.942139	1551.905151	29.694836
774.907776	978.473938	2928.595215	1535.976563	28.588099
775.221375	889.728638	2917.217773	1488.190552	29.517391
775.534912	960.269775	2965.003662	1549.629639	29.398409
775.848450	939.790100	2962.728027	1397.169800	22.609674
776.161926	1023.984375	2889.911377	1440.404663	22.317072
776.475342	939.790100	2871.707275	1429.027100	25.323912
776.788696	998.953613	2896.738037	1378.965576	20.023979
777.101990	937.514587	2860.329590	1463.159912	27.337280
777.415283	989.851563	2798.890625	1465.435425	26.289309
777.728516	926.136963	2812.543701	1454.057739	27.985521
778.041626	951.167725	2883.084961	1429.027100	24.734982
778.354736	910.208313	2794.339600	1458.608887	29.106281
778.667725	914.759338	2807.992676	1433.578125	27.403847
778.980774	971.647400	2773.859863	1467.710938	27.525253
779.293640	994.402588	2767.033203	1472.261963	26.957640
779.606567	967.096313	2803.441650	1506.394775	29.368031
779.919434	935.239075	2771.584229	1460.884399	28.624538
780.232239	914.759338	2714.696289	1465.435425	30.594187
780.544983	923.861450	2835.298828	1431.302612	26.547621
780.857666	953.443237	2817.094727	1353.934937	21.489624
781.170227	932.963501	2653.257324	1388.067749	26.455030
781.482849	901.106262	2771.584229	1397.169800	26.520683
781.795410	964.820801	2807.992676	1378.965576	22.469135
782.107910	957.994263	2676.012451	1431.302612	27.549671
782.420288	914.759338	2628.226563	1410.822876	28.950861
782.732666	1005.780212	2694.216553	1426.751587	24.932619
783.044983	1026.259888	2612.297852	1347.108276	20.229553
783.357300	1017.157776	2605.471436	1378.965576	22.779366
783.669495	1083.147949	2678.288086	1413.098389	20.684731
783.981689	942.065613	2707.869873	1340.281738	22.551544
784.293762	1001.229126	2632.777588	1392.618774	23.988846
784.605835	1046.739624	2569.062988	1363.036987	20.777279
784.917908	1035.361938	2666.910400	1413.098389	23.152021
785.229858	978.473938	2532.654541	1378.965576	25.768667
785.541748	935.239075	2459.837891	1403.996338	30.746269
785.853577	942.065613	2582.716064	1394.894287	27.600559
786.165405	1030.810913	2523.552490	1406.271851	25.152441
786.477173	1021.708862	2537.205811	1388.067749	24.174175
786.788879	989.851563	2521.277100	1394.894287	26.448738
787.100525	971.647400	2530.379150	1351.659302	24.379559
787.412109	928.412476	2478.042236	1422.200562	31.864906
787.723694	898.830688	2450.735840	1319.802124	27.126106
788.035156	948.892151	2478.042236	1317.526489	24.107138
788.346558	951.167725	2612.297852	1365.312500	24.931507
788.658081	960.269775	2807.992676	1397.169800	23.645321
788.969360	944.341125	2685.114502	1369.863525	24.444445
789.280640	1014.882263	2707.869873	1381.241089	21.639782
789.591919	946.616638	2748.829102	1419.924927	26.262625
789.903076	953.443237	2814.819336	1356.210449	21.638142
790.214172	973.922913	2753.380127	1403.996338	24.168797
790.525269	964.820801	2662.359375	1469.986450	29.758715
790.836365	973.922913	2682.839111	1378.965576	23.701727
791.147339	948.892151	2557.685303	1347.108276	24.752474
791.458191	1014.882263	2537.205811	1415.373901	26.307920
791.769104	994.402588	2516.726074	1367.588013	24.514200
792.079895	1026.259888	2455.286865	1372.139038	24.203823
792.390686	1035.361938	2380.194824	1403.996338	27.411167
792.701416	1028.535400	2334.684326	1290.220337	20.034847
793.012085	939.790100	2402.949951	1390.343262	30.793159
793.322693	937.514587	2443.909424	1406.271851	31.117823
793.633240	967.096313	2453.011475	1358.485962	26.339973
793.943787	980.749451	2400.674561	1294.771362	22.115387
794.254272	953.443237	2357.439453	1358.485962	28.849276
794.564636	1012.606750	2375.643799	1335.730713	23.706175
794.875000	939.790100	2357.439453	1358.485962	29.534513
795.185303	1026.259888	2414.327637	1347.108276	23.114750
795.495544	1037.637451	2325.582275	1397.169800	27.915197
795.805786	985.300537	2466.664551	1388.067749	27.188942
796.115906	998.953613	2418.878662	1349.383789	24.679483
796.426025	928.412476	2327.857666	1353.934937	30.406511
796.736023	987.576050	2421.154053	1392.618774	28.253971
797.045959	935.239075	2434.807373	1383.516602	29.893770
797.355896	985.300537	2596.369141	1299.322388	19.491526
797.665833	944.341125	2437.082764	1338.006226	26.371950
797.975708	967.096313	2514.450439	1376.690063	26.470589
798.285461	1003.504700	2491.695313	1328.904175	21.865442
798.595154	921.585938	2503.072998	1365.312500	28.057552
798.904846	955.718750	2487.144287	1347.108276	25.557203
799.214478	1026.259888	2352.888428	1349.383789	24.356773
799.524109	953.443237	2471.215576	1385.792114	28.485752
799.833557	887.453125	2414.327637	1390.343262	32.935917
800.143005	998.953613	2396.123291	1317.526489	22.801302
800.452393	992.127075	2368.817139	1342.557251	25.454544
800.761780	976.198425	2359.715088	1317.526489	24.671049
801.071106	1023.984375	2366.541748	1356.210449	24.745764
801.380371	923.861450	2261.867676	1272.016113	26.020407
801.689575	957.994263	2230.010498	1324.353149	28.801432
801.998718	951.167725	2243.663574	1356.210449	31.338030
802.307800	946.616638	2323.306641	1376.690063	31.239672
802.616882	987.576050	2261.867676	1363.036987	29.464287
802.925903	1021.708862	2250.489990	1331.179688	25.185186
803.234863	932.963501	2141.265137	1306.148926	30.885120
803.543701	1023.984375	2268.694336	1356.210449	26.691044
803.852539	955.718750	2159.469238	1287.944824	27.599247
804.161316	967.096313	2141.265137	1353.934937	32.945740
804.470032	957.994263	2202.704102	1356.210449	31.992693
804.778809	1008.055725	2280.071777	1326.628662	25.044725
805.087341	923.861450	2175.397949	1340.281738	33.272724
805.395935	1012.606750	2195.877686	1290.220337	23.461538
805.704468	964.820801	2173.122314	1287.944824	26.742002
806.012939	964.820801	2293.724854	1315.250977	26.369864
806.321350	962.545288	2261.867676	1303.873413	26.269703
806.629761	964.820801	2273.245361	1231.056763	20.347826
806.938049	889.728638	2341.510986	1292.495850	27.742947
807.246277	1014.882263	2227.734863	1388.067749	30.769238
807.554504	992.127075	2204.979736	1374.414551	31.519697
807.862671	971.647400	2234.561523	1290.220337	25.225227
808.170715	894.279663	2314.204590	1256.087524	25.480774
808.478821	944.341125	2113.958740	1256.087524	26.653702
808.786804	1008.055725	2157.193604	1294.771362	24.950499
809.094727	989.851563	2184.500000	1285.669312	24.761908
809.402649	1003.504700	2259.592041	1244.709839	19.202894
809.710510	1037.637451	2095.754639	1276.567139	22.580645
810.018311	983.024963	2095.754639	1292.495850	27.811865
810.326050	1008.055725	2027.489014	1274.291626	26.116070
810.633667	1012.606750	2143.540527	1317.526489	26.961767
810.941345	1021.708862	2111.683350	1274.291626	23.173273
811.248901	960.269775	2029.764526	1303.873413	32.127659
811.556396	960.269775	2034.315552	1335.730713	34.957630
811.863892	935.239075	2054.795166	1274.291626	30.284552
812.171326	944.341125	2043.417725	1206.026001	23.809521
812.478699	967.096313	2036.591064	1274.291626	28.723406
812.786011	953.443237	2036.591064	1221.954712	24.789919
813.093262	921.585938	2027.489014	1281.118164	32.510284
813.400391	921.585938	2123.060791	1276.567139	29.545454
813.707642	939.790100	2018.386963	1265.189575	30.168776
814.014709	944.341125	2059.346436	1246.985352	27.142849
814.321716	1026.259888	2077.550537	1228.781250	19.264071
814.628723	955.718750	2154.918213	1303.873413	29.032257
814.935669	1037.637451	2011.560425	1219.679199	18.691597
815.242554	1010.331238	1970.601074	1190.097412	18.720381
815.549438	978.473938	2041.142212	1310.699951	31.263382
815.856201	948.892151	1991.080688	1312.975464	34.934498
816.162964	1012.606750	2022.937988	1283.393677	26.801796
816.469604	1001.229126	2084.376953	1276.567139	25.420170
816.776184	878.351013	2020.662476	1340.281738	40.438244
817.082825	964.820801	2127.612061	1253.812012	24.853231
817.389343	955.718750	2041.142212	1167.342163	19.496853
817.695801	866.973450	2059.346436	1251.536499	32.251907
818.002197	1037.637451	2075.274902	1278.842651	23.245615
818.308533	1033.086426	2070.723877	1240.158813	19.956141
818.614868	1023.984375	2166.295898	1276.567139	22.111547
818.921143	935.239075	2116.234375	1310.699951	31.791901
819.227356	960.269775	2061.621826	1322.077637	32.851246
819.533447	919.310425	2054.795166	1349.383789	37.875751
819.839539	948.892151	2152.642578	1251.536499	25.141785
820.145569	917.034912	2164.020264	1394.894287	38.321171
820.451538	969.371887	2318.755615	1360.761475	29.005060
820.757568	1026.259888	2496.246338	1365.312500	23.065016
821.063416	957.994263	2650.981689	1403.996338	26.344088
821.369263	969.371887	2721.522949	1485.915039	29.480515
821.675049	946.616638	2860.329590	1499.568237	28.894178
821.980713	946.616638	3001.411865	1447.231201	24.363234
822.286438	894.279663	3342.739990	1626.997314	29.925648
822.592102	951.167725	4150.549805	1893.233276	29.445234
822.897583	971.647400	6237.202637	2505.348389	29.127050
823.203125	976.198425	8794.887695	3153.871826	27.852154
823.508545	946.616638	10378.650391	3572.567627	27.840771
823.813965	894.279663	10824.652344	3738.680664	28.643444
824.119263	996.678101	9841.627930	3351.842041	26.627216
824.424622	976.198425	8301.099609	3117.463379	29.232679
824.729858	985.300537	6979.022461	2801.166016	30.296125
825.035095	989.851563	6162.110352	2443.909424	28.112627
825.340149	937.514587	5295.136719	2120.785400	27.154047
825.645264	994.402588	4894.645020	2054.795166	27.187862
825.950256	928.412476	4541.939453	2032.040039	30.541563
826.255310	980.749451	4271.152344	1870.478149	27.040115
826.560242	1055.841675	4016.294189	1879.580200	27.824749
826.865112	973.922913	3743.231689	1820.416626	30.566967
827.169922	1026.259888	3681.792725	1704.365112	25.535563
827.474670	960.269775	3734.129639	1870.478149	32.813782
827.779419	983.024963	4289.356934	1968.325439	29.800409
828.084045	987.576050	4744.460938	2082.101563	29.133860
828.388672	969.371887	5288.310547	2088.927979	25.922022
828.693176	955.718750	5019.798828	2189.051025	30.347145
828.997681	971.647400	4548.766113	2045.693237	30.025448
829.302124	1042.188477	4050.427002	1849.998413	26.853254
829.606567	973.922913	3538.434814	1561.007324	22.892637
829.910828	953.443237	3306.331787	1531.425537	24.564796
830.215149	1071.770264	3017.340576	1567.833862	25.497080
830.519348	983.024963	2883.084961	1510.945801	27.784430
830.823547	901.106262	2826.196777	1499.568237	31.087471
831.127686	957.994263	2573.614014	1440.404663	29.859154
831.431763	998.953613	2512.175049	1317.526489	21.052628
831.735779	1033.086426	2261.867676	1419.924927	31.481478
832.039734	1012.606750	2266.418701	1381.241089	29.401085
832.343628	1003.504700	2125.336426	1312.975464	27.586201
832.647461	1012.606750	2157.193604	1376.690063	31.809145
832.951233	1014.882263	2239.112549	1390.343262	30.669149
833.255127	1046.739624	2143.540527	1297.046875	22.821575
833.558777	973.922913	2239.112549	1356.210449	30.215828
833.862366	1019.433350	2437.082764	1424.476074	28.571430
834.165955	957.994263	2637.328613	1424.476074	27.777781
834.469482	998.953613	2946.799316	1567.833862	29.205612
834.773010	980.749451	3397.352539	1695.262939	29.566854
835.076416	948.892151	3606.700439	1756.702026	30.393835
835.379822	957.994263	3549.812500	1713.467163	29.148375
835.683105	939.790100	3297.229736	1638.375000	29.633204
835.986389	1042.188477	2992.309814	1538.252075	25.437576
836.289612	976.198425	2771.584229	1506.394775	29.531055
836.592773	987.576050	2621.399902	1472.261963	29.665739
836.895874	957.994263	2519.001465	1483.639526	33.673470
837.198914	1001.229126	2407.500977	1310.699951	22.006472
837.501892	996.678101	2350.613037	1335.730713	25.042017
837.804871	866.973450	2275.520752	1285.669312	29.725367
838.107666	962.545288	2148.091553	1356.210449	33.205383
838.410583	1042.188477	2018.386963	1244.709839	20.745920
838.713379	969.371887	1929.641602	1262.914063	30.568722
839.016052	969.371887	1920.539551	1162.791138	20.334927
839.318787	983.024963	1852.273926	1185.546387	23.298437
839.621338	998.953613	1784.008301	1203.750488	26.086956
839.923889	1014.882263	1815.865601	1178.719727	20.454540
840.226440	1080.872437	1784.008301	1194.648438	16.181225
840.528931	1005.780212	1947.845825	1235.607788	24.396133
840.831299	976.198425	1988.805176	1251.536499	27.191017
841.133606	942.065613	2134.438477	1233.332275	24.427483
841.435913	942.065613	2084.376953	1292.495850	30.677298
841.738220	1008.055725	1925.090576	1228.781250	24.069481
842.040405	983.024963	1950.121338	1194.648438	21.882357
842.342529	1001.229126	1849.998413	1292.495850	34.316360
842.644592	923.861450	1872.753662	1178.719727	26.858507
842.946594	983.024963	1772.630737	1208.301514	28.530256
843.248596	928.412476	1777.181763	1192.372925	31.099199
843.550598	960.269775	1733.946899	1153.689087	25.000004
843.852478	969.371887	1708.916138	1217.403687	33.538467
844.154236	1044.463989	1702.089600	1228.781250	28.027689
844.455994	978.473938	1649.752563	1089.974487	16.610174
844.757690	967.096313	1624.721802	1231.056763	40.138416
845.059326	1046.739624	1645.201538	1199.199463	25.475279
845.360962	953.443237	1588.313477	1130.933838	27.956989
845.662476	914.759338	1488.190552	1194.648438	48.809532
845.963989	957.994263	1504.119263	1153.689087	35.833340
846.265381	951.167725	1558.731689	1169.617676	35.955055
846.566772	935.239075	1515.496826	1137.760376	34.901955
846.868042	912.483826	1465.435425	1169.617676	46.502052
847.169373	973.922913	1529.150024	1174.168701	36.065563
847.470581	923.861450	1517.772339	1153.689087	38.697327
847.771729	1017.157776	1481.364014	1064.943726	10.294121
848.072815	976.198425	1513.221313	1117.280762	26.271196
848.373901	992.127075	1551.905151	1060.392700	12.195123
848.674866	926.136963	1435.853638	1149.138062	43.750011
848.975891	942.065613	1401.720825	1051.290649	23.762384
849.276794	964.820801	1510.945801	1162.791138	36.250004
849.577637	960.269775	1581.486938	1078.596802	19.047611
849.878357	1003.504700	1451.782227	1078.596802	16.751253
850.179077	955.718750	1463.159912	1146.862427	37.668144
850.479736	987.576050	1417.649414	1144.586914	36.507927
850.780396	992.127075	1415.373901	1096.801025	24.731184
851.080994	1017.157776	1499.568237	1146.862427	26.886782
851.381470	1023.984375	1440.404663	1130.933838	25.683058
851.681946	951.167725	1410.822876	1039.912964	19.306917
851.982361	1019.433350	1403.996338	1094.525513	19.526623
852.282715	955.718750	1454.057739	1087.698975	26.484026
852.583008	962.545288	1351.659302	1105.903076	36.842102
852.883240	983.024963	1403.996338	1140.035889	37.297291
853.183411	930.687988	1454.057739	1092.250000	30.869574
853.483521	1005.780212	1415.373901	1074.045776	16.666655
853.783630	951.167725	1422.200562	1021.708862	14.975842
854.083679	1069.494751	1399.445313	987.576050	-24.827568
854.383667	962.545288	1390.343262	1144.586914	42.553177
854.683533	898.830688	1442.680176	1112.729614	39.330536
854.983337	976.198425	1363.036987	1064.943726	22.941172
855.283203	969.371887	1431.302612	1101.352051	28.571419
855.582886	971.647400	1467.710938	1117.280762	29.357803
855.882629	960.269775	1413.098389	1060.392700	22.110556
856.182312	994.402588	1401.720825	1087.698975	22.905035
856.481873	1014.882263	1426.751587	1101.352051	20.994471
856.781372	1037.637451	1390.343262	1092.250000	15.483881
857.080872	987.576050	1338.006226	1010.331238	6.493501
857.380310	935.239075	1376.690063	1051.290649	26.288666
857.679688	964.820801	1335.730713	1023.984375	15.950929
857.979004	973.922913	1367.588013	1096.801025	31.213871
858.278259	935.239075	1360.761475	1010.331238	17.647053
858.577454	914.759338	1360.761475	1067.219238	34.183670
858.876648	953.443237	1365.312500	1110.454102	38.121529
859.175720	960.269775	1417.649414	1080.872437	26.368174
859.474792	973.922913	1335.730713	1042.188477	18.867908
859.773743	1017.157776	1358.485962	1037.637451	5.999995
860.072693	1014.882263	1415.373901	1094.525513	19.886370
860.371521	1012.606750	1433.578125	1103.627563	21.621616
860.670349	987.576050	1315.250977	1058.117188	21.527781
860.969116	967.096313	1481.364014	1124.107300	30.530983
861.267883	957.994263	1322.077637	1069.494751	30.624989
861.566589	946.616638	1285.669312	1096.801025	44.295296
861.865112	1014.882263	1422.200562	1130.933838	28.491619
862.163635	994.402588	1365.312500	1039.912964	12.269927
862.462158	1010.331238	1369.863525	1060.392700	13.924052
862.760620	964.820801	1394.894287	1110.454102	33.862423
863.059021	967.096313	1408.547363	1062.668213	21.649490
863.357361	1010.331238	1390.343262	1087.698975	20.359287
863.655640	1053.566162	1335.730713	992.127075	-21.774204
863.953857	910.208313	1365.312500	1055.841675	32.000004
864.251953	973.922913	1435.853638	1096.801025	26.600983
864.550110	980.749451	1344.832764	1087.698975	29.375013
864.848206	905.657288	1340.281738	1094.525513	43.455498
865.146179	1012.606750	1347.108276	1042.188477	8.843525
865.444092	980.749451	1287.944824	1089.974487	35.555561
865.741943	985.300537	1422.200562	1087.698975	23.437498
866.039795	976.198425	1349.383789	1080.872437	28.048800
866.337646	989.851563	1351.659302	1023.984375	9.433964
866.635376	996.678101	1435.853638	1087.698975	20.725397
866.933044	969.371887	1435.853638	1074.045776	22.439011
867.230652	994.402588	1426.751587	1074.045776	18.421041
867.528198	937.514587	1333.455200	1046.739624	27.586218
867.825745	962.545288	1406.271851	1037.637451	16.923071
868.123230	983.024963	1333.455200	1033.086426	14.285714
868.420593	985.300537	1338.006226	1037.637451	14.838693
868.717896	926.136963	1449.506714	1042.188477	22.173906
869.015198	953.443237	1365.312500	1053.566162	24.309395
869.312439	896.555176	1312.975464	1099.076538	48.633884
869.609619	889.728638	1374.414551	1023.984375	27.699533
869.906738	942.065613	1369.863525	1067.219238	29.255314
870.203796	946.616638	1415.373901	1103.627563	33.495144
870.500854	964.820801	1376.690063	1151.413574	45.303883
870.797791	892.004150	1324.353149	1133.209351	55.789467
871.094666	973.922913	1394.894287	1108.178589	31.891878
871.391602	1010.331238	1342.557251	1064.943726	16.438354
871.688293	992.127075	1328.904175	1083.147949	27.027039
871.985107	969.371887	1358.485962	1108.178589	35.672497
872.281738	994.402588	1358.485962	1058.117188	17.500002
872.578369	998.953613	1347.108276	1033.086426	9.803923
872.874939	907.932800	1381.241089	1135.484863	48.076923
873.171509	910.208313	1388.067749	1089.974487	37.619049
873.467957	957.994263	1317.526489	1126.382813	46.835453
873.764343	919.310425	1365.312500	1099.076538	40.306114
874.060669	937.514587	1326.628662	1144.586914	53.216354
874.356995	953.443237	1338.006226	1151.413574	51.479301
874.653198	1005.780212	1378.965576	1094.525513	23.780487
874.949463	907.932800	1338.006226	1078.596802	39.682526
875.245544	1017.157776	1358.485962	1155.964600	40.666676
875.541626	973.922913	1417.649414	1085.423462	25.128216
875.837646	985.300537	1317.526489	1099.076538	34.246571
876.133606	960.269775	1365.312500	1105.903076	35.955048
876.429565	971.647400	1353.934937	1126.382813	40.476185
876.725403	994.402588	1317.526489	1071.770264	23.943657
877.021179	994.402588	1403.996338	1035.361938	9.999994
877.316956	962.545288	1403.996338	1133.209351	38.659794
877.612610	919.310425	1365.312500	1117.280762	44.387760
877.908203	987.576050	1526.874512	1099.076538	20.675098
878.203857	951.167725	1397.169800	1115.005249	36.734699
878.499390	953.443237	1419.924927	1105.903076	32.682919
878.794800	989.851563	1381.241089	1110.454102	30.813942
879.090271	987.576050	1372.139038	1039.912964	13.609451
879.385559	921.585938	1435.853638	1053.566162	25.663721
879.680847	998.953613	1403.996338	1058.117188	14.606749
879.976196	1005.780212	1483.639526	1117.280762	23.333342
880.271301	957.994263	1515.496826	1103.627563	26.122444
880.566467	992.127075	1556.456177	1176.444214	32.661285
880.861572	994.402588	1624.721802	1135.484863	22.382671
881.156555	869.248962	1820.416626	1210.577026	35.885162
881.451477	973.922913	2004.733887	1315.250977	33.112576
881.746460	1019.433350	2703.318604	1403.996338	22.837837
882.041321	921.585938	3431.485352	1727.120239	32.094288
882.336121	905.657288	4384.928711	1872.753662	27.795944
882.630798	932.963501	4644.337891	2011.560425	29.061926
882.925537	914.759338	4803.624512	1954.672363	26.740786
883.220215	1017.157776	4485.051270	1881.855713	24.934385
883.514771	910.208313	4068.631104	1790.834839	27.881844
883.809326	907.932800	3690.894775	1733.946899	29.681114
884.103760	942.065613	3458.791504	1711.191650	30.560581
884.398132	917.034912	3217.586426	1692.987427	33.728977
884.692505	889.728638	3106.085938	1583.762451	31.314165
884.986816	946.616638	2899.013428	1586.037964	32.750584
885.281067	1001.229126	2714.696289	1378.965576	22.045153
885.575256	1012.606750	2514.450439	1356.210449	22.878792
885.869385	1014.882263	2371.092773	1465.435425	33.221478
886.163452	989.851563	2118.509766	1397.169800	36.088715
886.457458	1019.433350	2011.560425	1317.526489	30.045862
886.751465	1046.739624	1861.375977	1149.138062	12.569834
887.045410	962.545288	1665.681274	1194.648438	33.009708
887.339233	962.545288	1647.477051	1142.311401	26.245842
887.632996	971.647400	1613.344238	1183.270874	32.978729
887.926758	960.269775	1520.047852	1149.138062	33.739849
888.220398	1042.188477	1592.864502	1142.311401	18.181820
888.514099	1012.606750	1506.394775	1037.637451	5.069118
888.807678	1010.331238	1501.843750	1171.893188	32.870365
889.101196	932.963501	1510.945801	1155.964600	38.582687
889.394653	962.545288	1508.670288	1126.382813	30.000004
889.688049	978.473938	1538.252075	1067.219238	15.853656
889.981384	1010.331238	1460.884399	1130.933838	26.767673
890.274719	1017.157776	1413.098389	1096.801025	20.114948
890.567932	948.892151	1388.067749	1053.566162	23.834206
>>>>>End Processed Spectral Data<<<<<
