Jaz Data File
++++++++++++++++++++++++++++++++++++
Date: Wed Feb 07 06:51:26 2024
User: jaz
Dark Spectrum Present: Yes
Reference Spectrum Present: Yes
Processed Spectrum Present: Yes
Spectrometers: JAZA3692
Integration Time (usec): 42900 (JAZA3692)
Spectra Averaged: 1 (JAZA3692)
Boxcar Smoothing: 0 (JAZA3692)
Correct for Electrical Dark: No (JAZA3692)
Strobe/Lamp Enabled: Yes (JAZA3692)
Correct for Detector Non-linearity: No (JAZA3692)
Correct for Stray Light: No (JAZA3692)
Number of Pixels in Processed Spectrum: 2048
>>>>>Begin Processed Spectral Data<<<<<
W	D	R	S	P
190.244385	0.000000	0.000000	0.000000	0.000000
190.627136	0.000000	0.000000	0.000000	0.000000
191.009842	907.932800	948.892151	896.555176	-27.777843
191.392532	985.300537	1028.535400	910.208313	-173.684433
191.775177	917.034912	967.096313	923.861450	13.636331
192.157791	989.851563	903.381775	948.892151	47.368465
192.540390	992.127075	917.034912	971.647400	27.272720
192.922943	905.657288	1001.229126	955.718750	52.380978
193.305481	1003.504700	1035.361938	978.473938	-78.571663
193.687958	1010.331238	1023.984375	1001.229126	-66.666817
194.070419	948.892151	1019.433350	953.443237	6.451672
194.452866	1064.943726	928.412476	973.922913	66.666649
194.835251	1030.810913	1012.606750	980.749451	275.000092
195.217621	1008.055725	976.198425	896.555176	350.000000
195.599960	1039.912964	1003.504700	1003.504700	100.000000
195.982254	1080.872437	976.198425	987.576050	89.130424
196.364517	1033.086426	971.647400	951.167725	133.333328
196.746750	962.545288	1003.504700	989.851563	66.666664
197.128952	1014.882263	994.402588	921.585938	455.555695
197.511139	1067.219238	1001.229126	1012.606750	82.758591
197.893280	992.127075	1010.331238	983.024963	-50.000168
198.275391	998.953613	935.239075	992.127075	10.714255
198.657471	1001.229126	1003.504700	1003.504700	100.000000
199.039520	1049.015137	967.096313	1017.157776	38.888939
199.421539	948.892151	1037.637451	1023.984375	84.615440
199.803513	967.096313	973.922913	932.963501	-499.997314
200.185471	1001.229126	948.892151	973.922913	52.173847
200.567383	1010.331238	1010.331238	926.136963	0.000000
200.949265	989.851563	989.851563	1058.117188	0.000000
201.331131	930.687988	1044.463989	964.820801	30.000011
201.712967	946.616638	1037.637451	964.820801	20.000000
202.094742	976.198425	1030.810913	935.239075	-74.999969
202.476517	980.749451	1026.259888	960.269775	-44.999954
202.858231	957.994263	1055.841675	978.473938	20.930216
203.239944	969.371887	994.402588	962.545288	-27.272905
203.621582	955.718750	935.239075	955.718750	-0.000000
204.003235	937.514587	969.371887	1039.912964	321.428284
204.384827	935.239075	1019.433350	983.024963	56.756695
204.766388	937.514587	1017.157776	1078.596802	177.142853
205.147934	985.300537	1039.912964	1035.361938	91.666687
205.529449	1021.708862	953.443237	983.024963	56.666733
205.910904	976.198425	1044.463989	973.922913	-3.333324
206.292343	948.892151	1019.433350	987.576050	54.838734
206.673767	930.687988	992.127075	1012.606750	133.333298
207.055115	998.953613	980.749451	960.269775	212.499954
207.436462	1010.331238	1012.606750	951.167725	-2600.008057
207.817780	1014.882263	1069.494751	1010.331238	-8.333305
208.199051	967.096313	976.198425	1008.055725	449.998993
208.580307	994.402588	983.024963	967.096313	239.999786
208.961517	928.412476	971.647400	939.790100	26.315819
209.342712	983.024963	987.576050	992.127075	199.998657
209.723846	976.198425	989.851563	937.514587	-283.332947
210.104965	1096.801025	1069.494751	928.412476	616.666138
210.486069	955.718750	1074.045776	937.514587	-15.384620
210.867111	985.300537	1044.463989	989.851563	7.692292
211.248123	962.545288	1046.739624	955.718750	-8.108073
211.629120	962.545288	998.953613	980.749451	50.000000
212.010071	994.402588	1044.463989	930.687988	-127.272903
212.390991	951.167725	1026.259888	987.576050	48.484852
212.771881	983.024963	923.861450	1010.331238	-46.153908
213.152756	962.545288	992.127075	923.861450	-130.769104
213.533569	962.545288	944.341125	967.096313	-24.999916
213.914368	930.687988	960.269775	1005.780212	253.846130
214.295135	989.851563	985.300537	937.514587	1150.004028
214.675858	989.851563	928.412476	985.300537	7.407378
215.056549	978.473938	992.127075	1019.433350	300.000000
215.437225	1019.433350	978.473938	960.269775	144.444397
215.817841	978.473938	1071.770264	946.616638	-34.146362
216.198441	1010.331238	985.300537	955.718750	218.182022
216.579025	928.412476	1028.535400	892.004150	-36.363625
216.959549	1053.566162	1017.157776	912.483826	387.499573
217.340057	973.922913	1012.606750	946.616638	-70.588326
217.720535	1003.504700	1008.055725	885.177612	-2600.009277
218.100967	1003.504700	1001.229126	926.136963	3399.922119
218.481369	994.402588	987.576050	1008.055725	-200.000900
218.861740	1003.504700	1067.219238	1026.259888	35.714279
219.242065	955.718750	978.473938	1069.494751	500.000275
219.622391	969.371887	1019.433350	985.300537	31.818188
220.002670	994.402588	1012.606750	912.483826	-450.000153
220.382919	976.198425	962.545288	1021.708862	-333.333191
220.763123	932.963501	996.678101	996.678101	100.000000
221.143295	937.514587	1014.882263	1005.780212	88.235329
221.523453	992.127075	1005.780212	1001.229126	66.666367
221.903549	957.994263	1003.504700	894.279663	-139.999969
222.283630	1046.739624	1023.984375	998.953613	209.999939
222.663696	976.198425	1035.361938	969.371887	-11.538425
223.043701	923.861450	978.473938	998.953613	137.499985
223.423676	978.473938	1033.086426	994.402588	29.166681
223.803635	967.096313	1012.606750	960.269775	-14.999940
224.183548	928.412476	996.678101	973.922913	66.666695
224.563431	962.545288	1014.882263	928.412476	-65.217400
224.943283	946.616638	1008.055725	946.616638	0.000000
225.323105	937.514587	1058.117188	960.269775	18.867908
225.702881	1008.055725	1033.086426	964.820801	-172.727585
226.082642	919.310425	1026.259888	976.198425	53.191479
226.462357	1017.157776	1035.361938	914.759338	-562.500122
226.842041	998.953613	967.096313	996.678101	7.142830
227.221695	926.136963	1019.433350	953.443237	29.268309
227.601318	937.514587	1021.708862	960.269775	27.027002
227.980911	989.851563	996.678101	910.208313	-1166.671143
228.360474	976.198425	1021.708862	942.065613	-74.999969
228.739990	1028.535400	1135.484863	1017.157776	-10.638318
229.119476	971.647400	1124.107300	926.136963	-29.850760
229.498932	1005.780212	1130.933838	1014.882263	7.272702
229.878372	996.678101	1187.821899	980.749451	-8.333333
230.257736	1008.055725	1212.852539	1026.259888	8.888889
230.637115	980.749451	1203.750488	942.065613	-17.346931
231.016449	992.127075	1128.658325	985.300537	-4.999982
231.395737	903.381775	1121.831787	901.106262	-1.041663
231.774994	937.514587	1014.882263	1008.055725	91.176498
232.154221	964.820801	1146.862427	964.820801	0.000000
232.533417	937.514587	1146.862427	921.585938	-7.608700
232.912582	917.034912	1167.342163	980.749451	25.454533
233.291702	928.412476	1115.005249	1046.739624	63.414646
233.670792	996.678101	1119.556274	1017.157776	16.666651
234.049866	907.932800	1133.209351	1071.770264	72.727257
234.428894	957.994263	1176.444214	962.545288	2.083326
234.807892	973.922913	1183.270874	1042.188477	32.608658
235.186874	985.300537	1133.209351	1076.321289	61.538422
235.565781	967.096313	1212.852539	1001.229126	13.888890
235.944687	1028.535400	1185.546387	1062.668213	21.739124
236.323547	948.892151	1256.087524	1058.117188	35.555561
236.702377	926.136963	1201.474976	978.473938	19.008263
237.081177	980.749451	1174.168701	912.483826	-35.294121
237.459946	980.749451	1190.097412	930.687988	-23.913040
237.838669	942.065613	1165.066650	930.687988	-5.102050
238.217361	928.412476	1256.087524	1010.331238	25.000000
238.596039	994.402588	1208.301514	1005.780212	5.319159
238.974670	942.065613	1208.301514	1005.780212	23.931633
239.353271	957.994263	1224.230225	1008.055725	18.803419
239.731842	980.749451	1240.158813	978.473938	-0.877190
240.110367	919.310425	1158.240112	944.341125	10.476178
240.488876	928.412476	1237.883301	1003.504700	24.264719
240.867340	964.820801	1253.812012	1055.841675	31.496071
241.245789	1019.433350	1258.363037	976.198425	-18.095249
241.624176	969.371887	1228.781250	1012.606750	16.666655
242.002548	957.994263	1467.710938	996.678101	7.589283
242.380890	1023.984375	1495.017212	983.024963	-8.695660
242.759186	1019.433350	1533.701050	1058.117188	7.522121
243.137451	932.963501	1592.864502	1026.259888	14.137937
243.515686	971.647400	1658.854614	1030.810913	8.609268
243.893890	964.820801	1658.854614	951.167725	-1.967206
244.272049	967.096313	1517.772339	976.198425	1.652898
244.650192	889.728638	1606.517700	1010.331238	16.825396
245.028290	905.657288	1506.394775	960.269775	9.090907
245.406357	960.269775	1492.741699	939.790100	-3.846151
245.784393	955.718750	1447.231201	1010.331238	11.111110
246.162384	907.932800	1501.843750	937.514587	4.980845
246.540359	948.892151	1592.864502	955.718750	1.060076
246.918289	955.718750	1615.619751	996.678101	6.206893
247.296204	989.851563	1756.702026	935.239075	-7.121661
247.674057	973.922913	2066.172852	955.718750	-1.666666
248.051895	976.198425	2243.663574	985.300537	0.718135
248.429703	948.892151	2352.888428	962.545288	0.972448
248.807465	1010.331238	2336.959961	978.473938	-2.401373
249.185196	1019.433350	2095.754639	1005.780212	-1.268500
249.562897	964.820801	1893.233276	917.034912	-5.147054
249.940567	1001.229126	1840.896362	967.096313	-4.065041
250.318192	1021.708862	1779.457275	967.096313	-7.207214
250.695801	994.402588	1649.752563	1023.984375	4.513892
251.073349	980.749451	1579.211426	1021.708862	6.844112
251.450882	955.718750	1501.843750	1042.188477	15.833322
251.828400	1053.566162	1524.598877	996.678101	-12.077306
252.205872	987.576050	1565.558350	978.473938	-1.574808
252.583313	926.136963	1636.099487	903.381775	-3.205125
252.960693	980.749451	1722.569214	944.341125	-4.907975
253.338074	955.718750	1913.713013	978.473938	2.375295
253.715408	1019.433350	1845.447388	955.718750	-7.713501
254.092682	923.861450	1665.681274	935.239075	1.533745
254.469955	989.851563	1654.303589	973.922913	-2.397261
254.847198	937.514587	1574.660400	1001.229126	9.999993
255.224365	1017.157776	1508.670288	983.024963	-6.944444
255.601563	910.208313	1506.394775	939.790100	4.961835
255.978683	973.922913	1547.354126	980.749451	1.190472
256.355743	976.198425	1499.568237	1019.433350	8.260875
256.732819	930.687988	1570.109375	989.851563	9.252674
257.109894	944.341125	1549.629639	989.851563	7.518801
257.486877	1005.780212	1576.935913	992.127075	-2.390440
257.863831	1028.535400	1683.885376	1026.259888	-0.347221
258.240753	1008.055725	1672.507813	998.953613	-1.369867
258.617645	1017.157776	1692.987427	985.300537	-4.713797
258.994507	1003.504700	1799.937012	1005.780212	0.285713
259.371307	980.749451	1836.345337	1049.015137	7.978730
259.748108	985.300537	2125.336426	1026.259888	3.592812
260.124878	998.953613	2314.204590	948.892151	-3.806229
260.501617	898.830688	2500.797363	955.718750	3.551139
260.878296	919.310425	2803.441650	1005.780212	4.589372
261.254944	951.167725	2889.911377	962.545288	0.586852
261.631561	989.851563	2864.880615	953.443237	-1.941747
262.008179	946.616638	2521.277100	998.953613	3.323699
262.384735	960.269775	2168.571289	912.483826	-3.954803
262.761261	973.922913	2018.386963	976.198425	0.217864
263.137695	926.136963	2027.489014	992.127075	5.991736
263.514191	928.412476	1934.192627	1005.780212	7.692311
263.890594	996.678101	1970.601074	1019.433350	2.336453
264.267029	944.341125	1909.161987	1071.770264	13.207543
264.643341	978.473938	1875.029175	971.647400	-0.761419
265.019653	942.065613	1845.447388	939.790100	-0.251888
265.395935	992.127075	1831.794189	1071.770264	9.485091
265.772217	1017.157776	1863.651489	1035.361938	2.150537
266.148407	953.443237	1829.518677	967.096313	1.558436
266.524597	992.127075	1970.601074	1021.708862	3.023257
266.900726	926.136963	2029.764526	998.953613	6.597937
267.276855	967.096313	2004.733887	967.096313	0.000000
267.652924	967.096313	2241.387939	971.647400	0.357146
268.028992	953.443237	2168.571289	1019.433350	5.430713
268.404999	955.718750	2118.509766	1012.606750	4.892367
268.781006	894.279663	2111.683350	1042.188477	12.149529
269.156921	980.749451	2125.336426	996.678101	1.391651
269.532837	973.922913	2170.846924	994.402588	1.711025
269.908661	953.443237	2086.652588	976.198425	2.008030
270.284546	892.004150	2143.540527	1010.331238	9.454546
270.660339	1023.984375	2148.091553	1014.882263	-0.809719
271.036133	937.514587	2141.265137	1060.392700	10.207939
271.411835	944.341125	2364.266113	1060.392700	8.173078
271.787537	969.371887	2448.460449	964.820801	-0.307695
272.163239	967.096313	2616.848877	917.034912	-3.034479
272.538849	1035.361938	2780.686523	1046.739624	0.651895
272.914459	987.576050	2812.543701	1001.229126	0.748127
273.290070	980.749451	2632.777588	962.545288	-1.101928
273.665588	944.341125	2491.695313	1078.596802	8.676467
274.041046	996.678101	2537.205811	1035.361938	2.511077
274.416565	1010.331238	2441.633789	1001.229126	-0.635932
274.791962	1005.780212	2389.296875	971.647400	-2.467105
275.167389	971.647400	2316.480225	987.576050	1.184433
275.542755	983.024963	2402.949951	985.300537	0.160260
275.918060	989.851563	2245.938965	1010.331238	1.630434
276.293365	1005.780212	2336.959961	967.096313	-2.905986
276.668640	976.198425	2475.766602	1003.504700	1.820943
277.043854	1023.984375	2489.419678	960.269775	-4.347827
277.419037	937.514587	2514.450439	1023.984375	5.483406
277.794189	964.820801	2439.358398	1049.015137	5.709880
278.169312	971.647400	2491.695313	1046.739624	4.940123
278.544373	976.198425	2514.450439	1010.331238	2.218935
278.919464	930.687988	2509.899414	962.545288	2.017292
279.294464	935.239075	2330.133301	942.065613	0.489395
279.669464	985.300537	2459.837891	1051.290649	4.475310
280.044403	1012.606750	2380.194824	1060.392700	3.494177
280.419312	944.341125	2437.082764	989.851563	3.048782
280.794189	1019.433350	2430.256104	1046.739624	1.935486
281.169037	1037.637451	2559.960938	1026.259888	-0.747381
281.543854	998.953613	2553.134277	1017.157776	1.171303
281.918671	980.749451	2589.542725	985.300537	0.282888
282.293365	987.576050	2869.431641	971.647400	-0.846433
282.668091	926.136963	2878.533936	1044.463989	6.060603
283.042786	978.473938	3003.687500	992.127075	0.674158
283.417419	967.096313	3005.962891	1028.535400	3.013394
283.792053	980.749451	2889.911377	1046.739624	3.456500
284.166595	973.922913	2937.697266	1010.331238	1.853997
284.541138	960.269775	2785.237549	1028.535400	3.740648
284.915619	998.953613	2939.972900	1021.708862	1.172335
285.290100	1055.841675	2921.768799	1017.157776	-2.073173
285.664520	996.678101	2894.462402	1005.780212	0.479618
286.038940	930.687988	2935.421875	976.198425	2.270149
286.413300	987.576050	3140.218750	1001.229126	0.634247
286.787628	896.555176	3165.249512	987.576050	4.012038
287.161896	955.718750	3219.861816	1021.708862	2.914573
287.536194	1001.229126	3304.056152	1003.504700	0.098817
287.910400	987.576050	3137.943115	1037.637451	2.328040
288.284607	937.514587	3074.228516	1014.882263	3.620872
288.658752	955.718750	2935.421875	1021.708862	3.333334
289.032867	971.647400	2814.819336	1085.423462	6.172841
289.406921	1005.780212	2851.227539	1023.984375	0.986436
289.781006	912.483826	2853.503174	1026.259888	5.861666
290.154999	1008.055725	2878.533936	983.024963	-1.338201
290.529022	1003.504700	3169.800537	1037.637451	1.575627
290.902954	910.208313	3112.912354	1001.229126	4.132231
291.276825	1026.259888	3253.994629	967.096313	-2.655773
291.650757	985.300537	3331.362549	894.279663	-3.879730
292.024597	960.269775	3297.229736	964.820801	0.194741
292.398407	962.545288	3265.372314	1021.708862	2.569171
292.772156	969.371887	3119.739014	1005.780212	1.693121
293.145905	978.473938	3115.187988	1001.229126	1.064962
293.519592	989.851563	2969.554688	1005.780212	0.804598
293.893280	1037.637451	3053.749023	1021.708862	-0.790065
294.266907	917.034912	3110.636963	1039.912964	5.601656
294.640533	980.749451	3294.954102	944.341125	-1.573254
295.014069	978.473938	3249.443604	1023.984375	2.004009
295.387604	1001.229126	3547.536865	1033.086426	1.251117
295.761078	1019.433350	3588.496338	1010.331238	-0.354297
296.134552	967.096313	3465.618164	989.851563	0.910748
296.507996	967.096313	3547.536865	1053.566162	3.350972
296.881378	923.861450	3549.812500	1062.668213	5.285961
297.254730	939.790100	3729.578613	1035.361938	3.425774
297.628021	1028.535400	3988.988037	1055.841675	0.922368
298.001282	953.443237	4034.498291	1014.882263	1.994090
298.374573	1019.433350	4091.386475	992.127075	-0.888890
298.747803	1001.229126	3909.344727	1008.055725	0.234743
299.121002	998.953613	3747.782715	1042.188477	1.572847
299.494141	885.177612	3602.149414	1005.780212	4.438861
299.867188	1001.229126	3565.741211	992.127075	-0.354923
300.240265	1001.229126	3388.250488	1051.290649	2.097238
300.613312	969.371887	3367.770752	1026.259888	2.371916
300.986328	1026.259888	3345.015625	978.473938	-2.060844
301.359314	987.576050	3203.933350	1044.463989	2.566731
301.732239	951.167725	3140.218750	1092.250000	6.444906
302.105103	921.585938	3265.372314	983.024963	2.621358
302.477997	953.443237	3188.004639	1003.504700	2.240326
302.850830	1003.504700	3367.770752	1035.361938	1.347447
303.223602	1008.055725	3135.667725	1080.872437	3.422462
303.596375	1051.290649	3208.484375	1023.984375	-1.265824
303.969116	973.922913	3071.953125	1008.055725	1.626898
304.341766	987.576050	3076.504150	1012.606750	1.198256
304.714478	980.749451	3156.147461	998.953613	0.836820
305.087067	944.341125	3162.973877	1069.494751	5.641025
305.459656	989.851563	3144.769775	1096.801025	4.963040
305.832214	1003.504700	3172.075928	1076.321289	3.357814
306.204681	971.647400	3040.095703	1062.668213	4.400439
306.577148	907.932800	3056.024414	1117.280762	9.745766
306.949646	998.953613	3140.218750	1180.995239	8.501592
307.322021	921.585938	3167.524902	1208.301514	12.765956
307.694397	935.239075	3126.565674	1199.199463	12.045689
308.066742	1019.433350	3053.749023	1224.230225	10.067114
308.439026	980.749451	3324.535889	1251.536499	11.553401
308.811279	1001.229126	3217.586426	1281.118164	12.628335
309.183502	998.953613	3417.832275	1281.118164	11.665097
309.555695	946.616638	3481.546875	1374.414551	16.876122
309.927887	951.167725	3415.556641	1408.547363	18.559555
310.299988	1023.984375	3556.638916	1424.476074	15.813120
310.672058	942.065613	3499.750977	1390.343262	17.526693
311.044128	946.616638	3558.914551	1376.690063	16.463415
311.416168	914.759338	3654.486328	1499.568237	21.345516
311.788147	942.065613	3636.282227	1540.527588	22.212839
312.160065	967.096313	3615.802490	1469.986450	18.986258
312.531982	944.341125	3549.812500	1410.822876	17.903929
312.903870	992.127075	3433.760986	1485.915039	20.223671
313.275696	948.892151	3417.832275	1401.720825	18.341015
313.647491	1014.882263	3319.984863	1506.394775	21.322805
314.019318	1001.229126	3404.179199	1481.364014	19.981058
314.391022	1017.157776	3415.556641	1454.057739	18.216318
314.762726	1003.504700	3445.138428	1485.915039	19.757687
315.134369	989.851563	3563.465576	1513.221313	20.335985
315.505981	937.514587	3699.996826	1538.252075	21.746294
315.877594	976.198425	3759.160400	1583.762451	21.831560
316.249146	1049.015137	3593.047363	1611.068726	22.093021
316.620636	928.412476	3467.893799	1490.466064	22.132612
316.992157	973.922913	3276.750000	1417.649414	19.268772
317.363586	896.555176	3290.403076	1424.476074	22.053234
317.735016	985.300537	3256.270264	1467.710938	21.242485
318.106354	960.269775	3304.056152	1524.598877	24.077667
318.477722	1026.259888	3347.291016	1472.261963	19.215687
318.849060	919.310425	3253.994629	1444.955688	22.514620
319.220306	910.208313	3244.892578	1444.955688	22.904484
319.591522	1014.882263	3442.863037	1520.047852	20.805996
319.962738	985.300537	3454.240479	1551.905151	22.949306
320.333923	944.341125	3304.056152	1426.751587	20.443590
320.705017	1042.188477	3310.882813	1440.404663	17.552660
321.076111	998.953613	3329.086914	1479.088501	20.605469
321.447144	978.473938	3283.576416	1460.884399	20.927938
321.818176	914.759338	3222.137451	1479.088501	24.457594
322.189178	967.096313	3201.657715	1529.150024	25.152752
322.560120	1005.780212	3326.811523	1394.894287	16.764706
322.931030	962.545288	3299.505127	1424.476074	19.766312
323.301910	985.300537	3411.005615	1463.159912	19.699814
323.672729	1030.810913	3679.517090	1510.945801	18.127150
324.043549	980.749451	3795.568604	1476.812988	17.623283
324.414337	983.024963	3918.446777	1588.313477	20.620153
324.785095	976.198425	4132.345703	1533.701050	17.664024
325.155792	985.300537	4089.110840	1576.935913	19.061583
325.526428	910.208313	4109.590332	1608.793213	21.834995
325.897034	987.576050	3968.508301	1561.007324	19.236643
326.267670	946.616638	3893.416016	1570.109375	21.158304
326.638184	889.728638	4009.467773	1549.629639	21.152441
327.008728	1028.535400	4068.631104	1529.150024	16.467068
327.379211	1014.882263	4048.151611	1476.812988	15.228807
327.749634	937.514587	3927.548828	1460.884399	17.503807
328.120026	978.473938	3891.140625	1508.670288	18.203125
328.490417	937.514587	3811.497314	1508.670288	19.873318
328.860748	987.576050	3659.037354	1499.568237	19.165247
329.231079	946.616638	3654.486328	1481.364014	19.747900
329.601318	973.922913	3834.252441	1526.874512	19.331743
329.971558	942.065613	3786.466553	1472.261963	18.640001
330.341736	969.371887	3754.609375	1531.425537	20.179739
330.711914	971.647400	3690.894775	1481.364014	18.744768
331.082062	957.994263	3756.884766	1442.680176	17.317072
331.452148	973.922913	3709.098877	1499.568237	19.217970
331.822174	1021.708862	3634.006836	1463.159912	16.898956
332.192200	926.136963	3877.487549	1545.078613	20.971472
332.562134	989.851563	3872.936523	1479.088501	16.969217
332.932129	996.678101	4009.467773	1517.772339	17.296072
333.302063	894.279663	4077.733398	1444.955688	17.298069
333.671906	953.443237	4145.999023	1481.364014	16.535994
334.041718	930.687988	4152.825684	1504.119263	17.796610
334.411499	967.096313	4216.540039	1538.252075	17.577032
334.781281	992.127075	4307.561035	1429.027100	13.177762
335.151001	1008.055725	4230.193359	1438.129150	13.347456
335.520721	1010.331238	3986.712402	1513.221313	16.896025
335.890350	944.341125	4216.540039	1524.598877	17.732960
336.259979	926.136963	4221.091309	1513.221313	17.817678
336.629547	930.687988	4266.601563	1483.639526	16.575716
336.999084	948.892151	4328.040527	1383.516602	12.861952
337.368622	912.483826	4150.549805	1463.159912	17.006327
337.738098	878.351013	4303.009766	1485.915039	17.740864
338.107513	951.167725	4243.846191	1495.017212	16.516933
338.476898	944.341125	4252.948242	1533.701050	17.812931
338.846252	967.096313	4419.061523	1499.568237	15.425181
339.215576	1055.841675	4425.888184	1538.252075	14.314651
339.584869	971.647400	4189.233887	1465.435425	15.346535
339.954132	944.341125	4186.958496	1469.986450	16.210526
340.323334	1028.535400	4155.101074	1419.924927	12.518193
340.692505	926.136963	3950.304199	1567.833862	21.218962
341.061646	960.269775	3977.610352	1469.986450	16.892912
341.430786	967.096313	4173.305176	1529.150024	17.530165
341.799896	926.136963	4127.794922	1451.782227	16.417908
342.168915	876.075500	4373.550781	1399.445313	14.964217
342.537903	937.514587	4428.163574	1510.945801	16.427639
342.906830	1026.259888	4478.225098	1501.843750	13.777191
343.275757	1001.229126	4496.429199	1504.119263	14.388021
343.644684	1042.188477	4460.020996	1522.323364	14.047935
344.013550	1017.157776	4587.449707	1583.762451	15.869982
344.382355	1001.229126	4828.655273	1615.619751	16.052319
344.751129	983.024963	4849.134766	1590.588989	15.715126
345.119873	1092.250000	5015.248047	1681.609863	15.023201
345.488586	1008.055725	5311.065430	1702.089600	16.129034
345.857269	1001.229126	5301.963379	1752.151001	17.460318
346.225891	1008.055725	5531.791016	1718.018188	15.694164
346.594482	1035.361938	5570.475098	1799.937012	16.859007
346.963043	1046.739624	5622.812012	1665.681274	13.525609
347.331543	1010.331238	5042.554199	1681.609863	16.647856
347.700043	948.892151	4976.563965	1606.517700	16.327684
348.068512	887.453125	4933.329102	1556.456177	16.535431
348.436951	994.402588	4985.666016	1647.477051	16.362600
348.805328	951.167725	4769.491699	1563.282837	16.030989
349.173645	1021.708862	4776.318359	1583.762451	14.969695
349.541931	983.024963	4760.389648	1588.313477	16.024096
349.910217	978.473938	4865.063477	1590.588989	15.749413
350.278473	923.861450	4944.706543	1688.436401	19.015280
350.646667	1021.708862	4999.319336	1658.854614	16.018305
351.014801	914.759338	5085.789063	1713.467163	19.148935
351.382935	980.749451	5024.350098	1638.375000	16.263365
351.751007	1035.361938	5010.696777	1692.987427	16.542643
352.119049	1071.770264	5188.187500	1686.160889	14.925374
352.487091	1028.535400	5126.748535	1747.599976	17.545809
352.855072	917.034912	5185.912109	1711.191650	18.603411
353.222992	985.300537	5092.615723	1681.609863	16.952906
353.590881	1010.331238	5427.117188	1631.548462	14.064916
353.958740	987.576050	5620.536621	1768.079712	16.846758
354.326599	987.576050	5697.904297	1711.191650	15.362318
354.694397	985.300537	5889.047852	1877.304688	18.190256
355.062134	898.830688	5964.140137	1881.855713	19.407007
355.429840	994.402588	5925.456055	1934.192627	19.058605
355.797516	992.127075	6159.834961	1845.447388	16.512548
356.165192	1014.882263	6259.957520	1925.090576	17.353580
356.532776	912.483826	6401.040039	1952.396851	18.946934
356.900360	978.473938	6583.081543	1993.356201	18.108000
357.267883	992.127075	6528.469238	1977.427612	17.796959
357.635376	1051.290649	6803.807129	2082.101563	17.919304
358.002808	1008.055725	7493.290039	2223.183838	18.736843
358.370270	948.892151	7682.158203	2191.326416	18.452179
358.737640	955.718750	7552.453613	2216.357178	19.110037
359.105011	1005.780212	7322.625977	2227.734863	19.344379
359.472321	1044.463989	7111.002441	2141.265137	18.079521
359.839569	1067.219238	7090.522949	2195.877686	18.738195
360.206787	962.545288	7024.532715	2091.203613	18.618620
360.574005	873.799988	7136.033203	2255.041016	22.056683
360.941193	962.545288	7754.975098	2339.235352	20.268005
361.308319	926.136963	8021.210938	2307.378174	19.467607
361.675415	1017.157776	8676.560547	2448.460449	18.686871
362.042450	926.136963	9129.389648	2580.440674	20.166435
362.409424	928.412476	9871.208984	2748.829102	20.356234
362.776428	1014.882263	9916.719727	2723.798340	19.197340
363.143402	1033.086426	9432.034180	2530.379150	17.827148
363.510284	946.616638	8792.612305	2482.593262	19.576567
363.877136	989.851563	7898.332520	2423.429688	20.750990
364.243988	955.718750	7388.616211	2321.031250	21.223911
364.610779	964.820801	7172.441406	2318.755615	21.810850
364.977539	951.167725	6967.644531	2154.918213	20.007565
365.344269	1044.463989	6658.173828	2207.255127	20.713417
365.710938	985.300537	6737.816895	2157.193604	20.371832
366.077576	905.657288	6637.694336	2077.550537	20.444622
366.444183	976.198425	6587.632813	2057.070801	19.261961
366.810760	983.024963	6471.581055	2164.020264	21.517414
367.177277	944.341125	6583.081543	2257.316650	23.284910
367.543823	976.198425	6660.449219	2104.856689	19.855883
367.910248	1051.290649	6583.081543	2173.122314	20.279718
368.276642	948.892151	6517.091797	2193.602051	22.353903
368.643036	935.239075	6476.132324	2057.070801	20.246407
369.009399	980.749451	6303.192383	2177.673340	22.488241
369.375671	932.963501	6253.131348	2098.030273	21.899059
369.741974	987.576050	6253.131348	2216.357178	23.336212
370.108215	948.892151	6216.722656	2214.081787	24.017281
370.474396	921.585938	6091.569336	2202.704102	24.779928
370.840546	892.004150	6125.702148	2204.979736	25.086956
371.206665	973.922913	6401.040039	2273.245361	23.941301
371.572784	964.820801	6644.520508	2318.755615	23.838140
371.938843	1008.055725	6601.285645	2289.173828	22.904800
372.304840	935.239075	6705.959961	2330.133301	24.171925
372.670807	932.963501	6649.071777	2366.541748	25.079620
373.036713	962.545288	6712.786133	2519.001465	27.067671
373.402649	964.820801	6503.438477	2355.164063	25.102713
373.768524	985.300537	6594.459473	2457.562500	26.247463
374.134308	960.269775	6494.336426	2430.256104	26.562498
374.500122	894.279663	6412.417480	2427.980713	27.793816
374.865875	971.647400	6692.306641	2398.398926	24.940332
375.231567	996.678101	6708.235352	2623.675537	28.486057
375.597260	1019.433350	6730.990723	2628.226563	28.167328
375.962891	996.678101	6951.715820	2564.511963	26.327858
376.328461	1008.055725	7156.512695	2607.746826	26.017765
376.694031	1019.433350	7215.676270	2746.553711	27.873671
377.059540	985.300537	7659.402832	2794.339600	27.105352
377.425049	1005.780212	7932.465332	2960.452637	28.219450
377.790497	1001.229126	8314.752930	2985.483398	27.131302
378.155945	935.239075	8612.846680	3101.534912	28.215769
378.521301	962.545288	8301.099609	3181.177979	30.232559
378.886597	894.279663	8121.333984	3126.565674	30.887913
379.251892	935.239075	7802.760742	3062.851074	30.980785
379.617157	1010.331238	7584.311035	2928.595215	29.179644
379.982422	944.341125	7286.217773	2935.421875	31.395767
380.347595	942.065613	7167.890625	2926.319824	31.871344
380.712738	998.953613	7240.707031	2885.360352	30.222385
381.077820	992.127075	7288.493164	2980.932129	31.586554
381.442902	960.269775	7463.708008	2978.656738	31.035688
381.807953	983.024963	7163.339355	3026.442627	33.063328
382.172974	980.749451	7161.063965	3024.167236	33.063328
382.537933	951.167725	7097.349609	3101.534912	34.987041
382.902832	987.576050	7151.961914	3060.575439	33.628647
383.267700	998.953613	7593.413086	3083.330566	31.608004
383.632538	932.963501	7566.106445	3231.239502	34.648369
383.997345	976.198425	7805.036133	3147.045166	31.789402
384.362152	912.483826	7741.321777	3345.015625	35.621460
384.726898	971.647400	7761.801270	3447.414063	36.461128
385.091553	942.065613	7939.291992	3383.699463	34.894306
385.456238	985.300537	8114.507324	3486.097900	35.078197
385.820862	980.749451	7962.047363	3647.659912	38.200783
386.185425	980.749451	7925.639160	3611.251465	37.876801
386.549988	946.616638	8157.742188	3636.282227	37.298832
386.914490	960.269775	8109.956055	3875.211914	40.770210
387.278961	983.024963	8166.844238	3845.630127	39.847958
387.643372	1012.606750	8319.303711	3954.855225	40.267834
388.007782	996.678101	8542.304688	4059.529053	40.591076
388.372101	957.994263	8749.377930	4111.866211	40.478973
388.736450	930.687988	8401.222656	4218.815430	44.014622
389.100739	942.065613	8348.885742	4218.815430	44.239628
389.464966	969.371887	8285.170898	4223.366699	44.479012
389.829163	983.024963	8166.844238	4266.601563	45.707951
390.193329	989.851563	8043.965820	4150.549805	44.806450
390.557495	926.136963	8305.651367	4366.724609	46.623493
390.921570	882.902100	8469.488281	4491.877930	47.570488
391.285614	948.892151	8642.427734	4607.929688	47.559898
391.649597	1012.606750	9017.888672	4906.022949	48.635593
392.013550	978.473938	9504.850586	5154.054688	48.972507
392.377502	964.820801	9752.881836	5226.871094	48.498188
392.741455	1019.433350	9507.125977	5372.504395	51.286865
393.105316	1014.882263	9536.708008	5288.310547	50.146858
393.469086	973.922913	9534.432617	5438.494629	52.153107
393.832886	1026.259888	9279.574219	5472.627441	53.873722
394.196655	973.922913	9454.789063	5470.352051	53.018513
394.560333	973.922913	9666.412109	5757.067871	55.026184
394.924042	983.024963	9593.595703	5959.588867	57.795986
395.287659	987.576050	9623.177734	5845.812988	56.258232
395.651245	928.412476	9520.779297	6005.099609	59.083683
396.014771	939.790100	9131.665039	5930.007324	60.916668
396.378296	1035.361938	8854.051758	5772.996094	60.593708
396.741791	928.412476	8776.683594	5531.791016	58.654682
397.105255	953.443237	8453.559570	5693.353027	63.197815
397.468628	1001.229126	8351.161133	5650.118164	63.250778
397.832001	935.239075	8260.140625	5720.659180	65.330841
398.195313	948.892151	8656.081055	5945.936035	64.836143
398.558624	935.239075	8540.029297	5991.446289	66.487137
398.921844	898.830688	8565.060547	6007.375000	66.636986
399.285095	946.616638	8669.734375	6162.110352	67.530937
399.648254	942.065613	8701.591797	6125.702148	66.803520
400.011383	932.963501	8574.162109	6294.090332	70.160812
400.374451	953.443237	8501.345703	6241.753418	70.063309
400.737549	992.127075	8608.294922	6382.835938	70.779808
401.100586	973.922913	8469.488281	6143.906250	68.973892
401.463562	983.024963	8553.682617	6428.346191	71.926659
401.826508	994.402588	8844.949219	6715.062012	72.869560
402.189392	1014.882263	8626.499023	6521.642578	72.346786
402.552246	960.269775	8694.764648	6737.816895	74.698433
402.915070	996.678101	8685.663086	6708.235352	74.282333
403.277893	996.678101	8872.255859	6976.746582	75.931808
403.640656	955.718750	9131.665039	7167.890625	75.981071
404.003326	953.443237	9568.565430	7443.228516	75.330162
404.366028	962.545288	9454.789063	7504.667480	77.036438
404.728699	969.371887	9896.240234	7848.271484	77.058372
405.091248	939.790100	10103.312500	8269.242188	79.985092
405.453857	994.402588	10301.282227	8385.293945	79.413208
405.816345	971.647400	9934.923828	8175.946289	80.375732
406.178833	1030.810913	10176.128906	8030.312988	76.536446
406.541260	1008.055725	10112.414063	8301.099609	80.104973
406.903687	944.341125	9775.637695	8064.445801	80.623543
407.266052	962.545288	9707.372070	7898.332520	79.313026
407.628387	967.096313	9552.636719	8043.965820	82.427773
407.990662	1001.229126	9552.636719	7820.964844	79.749863
408.352905	1008.055725	9463.890625	7952.945313	82.131332
408.715118	989.851563	9336.461914	8103.129395	85.223549
409.077332	998.953613	9236.338867	7807.312012	82.651939
409.439484	1037.637451	9409.278320	7941.567383	82.468063
409.801575	1021.708862	9648.208008	8005.282227	80.954895
410.163605	951.167725	9853.004883	8271.518555	82.234154
410.525635	1055.841675	9971.332031	8464.937500	83.103630
410.887604	971.647400	10112.414063	8528.652344	82.673645
411.249573	978.473938	10148.823242	8642.427734	83.573189
411.611481	994.402588	10219.364258	8601.468750	82.461761
411.973328	976.198425	9937.199219	8646.979492	85.601837
412.335144	926.136963	10064.628906	8594.641602	83.914337
412.696930	1008.055725	9752.881836	8337.507813	83.814728
413.058685	946.616638	9923.545898	8474.039063	83.852974
413.420410	953.443237	9707.372070	8296.548828	83.883545
413.782104	980.749451	9837.076172	8508.171875	84.994858
414.143707	978.473938	9900.791016	8510.448242	84.417244
414.505310	989.851563	9907.617188	8628.774414	85.659607
414.866852	987.576050	9932.648438	8669.734375	85.881454
415.228394	1003.504700	10360.446289	8901.836914	84.411476
415.589874	932.963501	10294.456055	9004.235352	86.217796
415.951324	978.473938	10346.792969	9213.583984	87.903816
416.312683	973.922913	10663.090820	9381.972656	86.777832
416.674072	955.718750	11029.449219	9561.738281	85.430313
417.035370	967.096313	11393.532227	9759.708984	84.329994
417.396667	1033.086426	11527.788086	10128.342773	86.665222
417.757935	1021.708862	11725.758789	10239.843750	86.118195
418.119141	1026.259888	12174.036133	10745.008789	87.181053
418.480286	985.300537	12328.771484	10895.193359	87.362083
418.841400	887.453125	13157.061523	11386.706055	85.571213
419.202484	869.248962	13216.224609	11589.227539	86.822708
419.563568	953.443237	13830.615234	11896.422852	84.979683
419.924591	973.922913	14813.640625	12733.814453	84.972046
420.285553	917.034912	14708.966797	12779.325195	86.008911
420.646484	987.576050	16024.217773	13810.135742	85.275421
421.007355	960.269775	15990.084961	14144.637695	87.721428
421.368225	976.198425	17257.548828	14856.875000	85.255066
421.729065	998.953613	17457.794922	15150.417969	85.980927
422.089874	955.718750	17962.960938	15874.033203	87.717422
422.450592	935.239075	17699.000000	15496.296875	86.860321
422.811279	987.576050	17787.746094	15368.867188	85.602058
423.171936	962.545288	17689.898438	15034.366211	84.124611
423.532593	1005.780212	17282.580078	15104.907227	86.621002
423.893127	955.718750	17614.806641	15207.305664	85.548424
424.253723	985.300537	18033.501953	15364.316406	84.343300
424.614197	1042.188477	18001.644531	15546.358398	85.522606
424.974670	1012.606750	18290.636719	16279.076172	88.357704
425.335052	1026.259888	18879.996094	16238.116211	85.202652
425.695496	1014.882263	17787.746094	15505.398438	86.392624
426.055817	932.963501	17960.685547	15464.439453	85.340103
426.416168	1003.504700	17792.296875	15430.306641	85.931145
426.776398	1023.984375	16720.527344	14447.281250	85.517540
427.136627	955.718750	16126.616211	14251.586914	87.640617
427.496826	930.687988	16160.749023	13930.738281	85.357841
427.856995	935.239075	15562.287109	13694.083984	87.227753
428.217102	971.647400	14902.385742	12688.303711	84.106499
428.577179	1010.331238	14731.721680	12824.834961	86.102814
428.937195	1003.504700	14381.291016	12515.364258	86.052048
429.297180	969.371887	13807.860352	12055.708984	86.352356
429.657135	996.678101	13587.134766	12123.974609	88.378815
430.017059	971.647400	13707.737305	12178.586914	87.993568
430.376984	978.473938	13878.401367	11928.280273	84.882698
430.736786	939.790100	13414.195313	11589.227539	85.370300
431.096588	964.820801	13471.083008	11721.208008	86.008011
431.456360	896.555176	13584.859375	12039.780273	87.822800
431.816071	983.024963	13234.428711	11723.483398	87.667168
432.175781	964.820801	13400.541992	11514.135742	84.830742
432.535400	937.514587	13352.755859	11657.493164	86.345306
432.895020	942.065613	13359.583008	11509.583984	85.101700
433.254578	976.198425	13687.257813	11809.953125	85.230934
433.614105	985.300537	13764.625000	12062.536133	86.680916
433.973602	953.443237	14190.147461	12178.586914	84.803162
434.333038	871.524475	13967.146484	12333.322266	87.523888
434.692444	969.371887	14356.260742	12160.382813	83.596802
435.051819	957.994263	14233.382813	12567.701172	87.452858
435.411133	1021.708862	14285.719727	12788.426758	88.711609
435.770416	932.963501	13939.840820	11682.523438	82.645203
436.129669	989.851563	14267.515625	12517.639648	86.820908
436.488861	992.127075	13946.666992	12005.647461	85.016685
436.848083	992.127075	14051.340820	11946.484375	83.882210
437.207184	998.953613	13930.738281	12155.832031	86.274857
437.566254	969.371887	14433.628906	12640.517578	86.682434
437.925293	1010.331238	14308.474609	12747.467773	88.261467
438.284363	967.096313	14374.464844	12663.273438	87.236931
438.643311	1046.739624	14572.435547	12688.303711	86.069984
439.002258	932.963501	14449.556641	12624.589844	86.498322
439.361145	1021.708862	15478.092773	13398.266602	85.613098
439.719971	948.892151	15614.624023	13623.542969	86.423584
440.078827	971.647400	15842.175781	13750.972656	85.937263
440.437592	1037.637451	16379.198242	14267.515625	86.235542
440.796295	1042.188477	16545.312500	14101.402344	84.236015
441.155029	1017.157776	17614.806641	15434.857422	86.865913
441.513672	898.830688	18336.146484	15691.991211	84.836220
441.872253	969.371887	17960.685547	15621.450195	86.232750
442.230865	923.861450	17544.265625	15016.162109	84.789154
442.589386	1085.423462	17341.744141	14774.957031	84.210526
442.947876	960.269775	17068.681641	14713.517578	85.379288
443.306335	967.096313	16820.650391	14429.077148	84.914589
443.664764	957.994263	16074.279297	13814.686523	85.051933
444.023102	919.310425	16688.669922	14130.984375	83.780663
444.381500	973.922913	16586.271484	14115.055664	84.171402
444.739777	957.994263	16424.708984	14249.311523	85.934975
445.098022	851.044800	16467.943359	14536.027344	87.629326
445.456238	978.473938	16631.781250	14374.464844	85.579300
445.814423	917.034912	17150.599609	14984.304688	86.655457
446.172577	996.678101	18217.820313	15603.246094	84.817650
446.530701	932.963501	18365.728516	15448.510742	83.265884
446.888733	910.208313	18727.537109	16256.320313	86.130264
447.246765	944.341125	19808.408203	17007.242188	85.150787
447.604736	962.545288	18905.027344	16420.158203	86.150917
447.962677	930.687988	19376.060547	16975.384766	86.984940
448.320587	967.096313	19637.744141	16772.863281	84.655693
448.678436	1005.780212	18859.515625	16388.300781	86.158554
449.036255	971.647400	18907.302734	16097.034180	84.331383
449.394043	971.647400	17696.724609	15182.274414	84.965981
449.751770	971.647400	17869.664063	15896.788086	88.324799
450.109467	939.790100	17398.632813	14813.640625	84.294212
450.467163	935.239075	17325.814453	14993.406250	85.769814
450.824768	980.749451	16959.457031	14613.394531	85.317574
451.182343	953.443237	17166.529297	14565.608398	83.957893
451.539886	923.861450	16097.034180	13962.595703	85.932816
451.897369	951.167725	16388.300781	14167.392578	85.613205
452.254822	985.300537	16392.851563	13907.983398	83.872398
452.612274	962.545288	16438.361328	14588.364258	88.045883
452.969635	996.678101	16624.955078	14499.618164	86.400696
453.326965	957.994263	16647.710938	14347.158203	85.337196
453.684326	953.443237	16165.299805	14067.269531	86.207924
454.041534	967.096313	15971.880859	13776.002930	85.365479
454.398773	978.473938	15532.705078	13257.184570	84.365234
454.755951	880.626526	15305.153320	12975.019531	83.846031
455.113098	1021.708862	14902.385742	12554.047852	83.081963
455.470215	969.371887	14747.650391	13113.826172	88.142029
455.827240	932.963501	15018.437500	12938.611328	85.234245
456.184265	960.269775	14704.415039	12670.099609	85.198677
456.541260	962.545288	14565.608398	12572.251953	85.346268
456.898193	1008.055725	14834.120117	12731.539063	84.792625
457.255096	1010.331238	14972.926758	12977.294922	85.707298
457.611969	964.820801	14649.802734	12752.018555	86.132355
457.968781	1003.504700	15009.334961	12799.804688	84.224213
458.325531	1010.331238	15321.082031	13227.602539	85.371284
458.682312	973.922913	15762.532227	13769.176758	86.521011
459.039001	953.443237	16816.099609	14353.985352	84.478554
459.395630	969.371887	17287.130859	15114.008789	86.682472
459.752289	971.647400	18870.894531	16254.044922	85.380112
460.108856	951.167725	20306.748047	17407.734375	85.022339
460.465363	930.687988	20816.464844	18183.687500	86.760498
460.821899	921.585938	20930.240234	17742.236328	84.066872
461.178345	928.412476	20238.482422	17576.123047	86.212585
461.534760	942.065613	19869.847656	17221.140625	86.006248
461.891144	976.198425	18597.832031	16376.922852	87.396698
462.247467	1023.984375	18158.656250	15530.429688	84.661354
462.603760	937.514587	17769.541016	15002.508789	83.560905
462.960052	987.576050	16793.343750	14590.639648	86.063919
463.316254	1049.015137	16317.759766	14026.310547	84.992546
463.672424	967.096313	16001.461914	13864.748047	85.787804
464.028564	962.545288	15616.899414	13348.205078	84.518631
464.384644	1008.055725	15585.041992	13327.725586	84.514519
464.740723	992.127075	15990.084961	13466.532227	83.174026
465.096741	921.585938	15614.624023	13291.317383	84.187706
465.452698	932.963501	15703.369141	13375.511719	84.239716
465.808655	901.106262	15849.001953	13425.572266	83.787483
466.164520	889.728638	15439.408203	13475.633789	86.502968
466.520355	971.647400	16347.341797	13835.166016	83.661385
466.876190	973.922913	16413.332031	14153.739258	85.364769
467.231964	978.473938	16331.413086	14053.616211	85.163773
467.587677	983.024963	17155.150391	14269.791016	82.158440
467.943390	948.892151	17246.171875	14508.720703	83.203018
468.299011	998.953613	16404.228516	14181.045898	85.568687
468.654633	939.790100	16467.943359	14133.259766	84.964836
469.010223	1039.912964	16565.791016	14190.147461	84.698814
469.365723	1005.780212	15673.787109	13553.001953	85.541420
469.721191	1030.810913	16015.115234	13857.921875	85.603645
470.076660	1005.780212	15589.592773	13307.246094	84.350136
470.432068	973.922913	15928.645508	13505.215820	83.794884
470.787445	996.678101	15318.805664	13220.775391	85.351128
471.142792	987.576050	15703.369141	13336.827148	83.918350
471.498016	951.167725	15748.879883	13625.818359	85.652771
471.853271	996.678101	15539.531250	13712.288086	87.435455
472.208496	994.402588	15753.430664	13466.532227	84.505089
472.563660	951.167725	15739.777344	13634.920898	85.767044
472.918762	935.239075	16310.933594	13946.666992	84.623352
473.273865	987.576050	16649.986328	14142.361328	83.989532
473.628876	980.749451	17055.029297	14733.997070	85.560585
473.983917	969.371887	16995.865234	14622.497070	85.190971
474.338837	978.473938	17004.966797	14738.547852	85.858299
474.693787	978.473938	16938.976563	14497.342773	84.702026
475.048645	939.790100	16695.496094	14146.913086	83.824379
475.403503	946.616638	16784.242188	14690.762695	86.781609
475.758270	1023.984375	17027.722656	14854.599609	86.421150
476.113037	946.616638	16768.312500	14945.621094	88.479797
476.467773	994.402588	17419.111328	15236.887695	86.713776
476.822418	1026.259888	18315.666016	15910.441406	86.088448
477.177063	917.034912	18183.687500	15607.796875	85.081703
477.531647	976.198425	18700.230469	16158.473633	85.659271
477.886200	928.412476	19109.824219	16388.300781	85.031288
478.240723	919.310425	19703.734375	16436.085938	82.604477
478.595184	964.820801	19690.082031	17057.304688	85.939972
478.949585	951.167725	20377.289063	17155.150391	83.413368
479.303986	907.932800	20322.675781	17369.050781	84.786690
479.658325	1023.984375	20322.675781	17673.970703	86.275208
480.012634	962.545288	20349.982422	17607.980469	85.856812
480.366913	955.718750	21021.261719	18472.677734	87.298706
480.721130	901.106262	21558.283203	18550.044922	85.437325
481.075317	946.616638	22486.697266	18852.689453	83.129089
481.429474	962.545288	23492.476563	19951.765625	84.284416
481.783569	996.678101	24436.818359	20884.730469	84.846130
482.137604	962.545288	25881.773438	21976.980469	84.330200
482.491669	964.820801	28155.019531	24036.326172	84.852287
482.845612	1019.433350	31054.033203	26332.326172	84.279106
483.199554	939.790100	35204.582031	29454.341797	83.218224
483.553436	1019.433350	41039.019531	35184.101563	85.369865
483.907318	980.749451	47870.132813	41539.632813	86.499077
484.261139	937.514587	53791.035156	47410.476563	87.927849
484.614899	892.004150	56366.925781	49824.804688	88.207069
484.968628	1014.882263	55886.789063	49560.843750	88.471428
485.322357	989.851563	53520.250000	46604.941406	86.835609
485.675964	964.820801	49763.363281	43125.671875	86.397766
486.029572	989.851563	45565.027344	39116.203125	85.532700
486.383148	976.198425	43346.394531	36740.558594	84.409241
486.736694	1026.259888	40661.281250	34986.132813	85.681480
487.090149	1001.229126	40847.875000	34772.234375	84.752441
487.443604	944.341125	41958.328125	35919.097656	85.275192
487.796997	932.963501	44281.636719	37193.386719	83.648285
488.150360	987.576050	45189.566406	39268.664063	86.604897
488.503693	962.545288	45797.132813	39402.917969	85.738213
488.856964	835.116150	45071.242188	38422.167969	84.969131
489.210175	953.443237	42074.378906	36624.507813	86.746727
489.563416	917.034912	40065.093750	34135.085938	84.852356
489.916565	996.678101	37700.828125	31923.281250	84.259148
490.269653	948.892151	35341.113281	29793.394531	83.869255
490.622772	967.096313	34267.066406	29265.472656	84.980194
490.975769	960.269775	34125.984375	29163.074219	85.036026
491.328735	957.994263	35564.113281	30473.775391	85.290649
491.681732	980.749451	37780.472656	32412.517578	85.413055
492.034607	1005.780212	40306.300781	34232.933594	84.546341
492.387482	1005.780212	40998.058594	34599.292969	84.000000
492.740326	946.616638	39530.347656	34196.527344	86.175987
493.093079	1008.055725	37689.449219	32182.691406	84.987595
493.445862	1026.259888	34558.335938	29320.085938	84.378395
493.798523	960.269775	31911.904297	27399.546875	85.421265
494.151215	937.514587	29486.199219	25194.566406	84.967316
494.503815	942.065613	27454.158203	23183.005859	83.889793
494.856384	951.167725	25943.212891	21749.427734	83.219521
495.208923	1035.361938	24632.511719	21050.843750	84.821609
495.561432	923.861450	23874.763672	20755.025391	86.406906
495.913879	969.371887	24197.888672	20138.359375	82.523514
496.266296	926.136963	24345.796875	20452.380859	83.375435
496.618683	1021.708862	24015.845703	20411.421875	84.324593
496.970978	969.371887	24914.677734	20775.505859	82.714058
497.323273	985.300537	25158.158203	21021.261719	82.886192
497.675507	1019.433350	25296.964844	21551.457031	84.572121
498.027710	1028.535400	25349.300781	21726.671875	85.104790
498.379852	923.861450	24955.636719	21214.679688	84.433289
498.731995	971.647400	24409.511719	20805.085938	84.621353
499.084076	1051.290649	24320.765625	20684.484375	84.373169
499.436096	1080.872437	23981.712891	20181.593750	83.406204
499.788086	1049.015137	23340.017578	19837.990234	84.289505
500.140106	989.851563	22666.462891	19084.792969	83.476799
500.491943	1033.086426	22322.859375	18893.648438	83.892685
500.843842	1044.463989	22081.654297	19071.140625	85.689560
501.195679	1001.229126	21544.630859	18499.984375	85.179443
501.547455	1001.229126	21237.435547	17962.960938	83.818733
501.899231	987.576050	21189.650391	17817.328125	83.307053
502.250885	932.963501	21080.423828	17846.910156	83.950760
502.602600	957.994263	20941.617188	17582.949219	83.192894
502.954193	930.687988	20843.771484	17646.664063	83.944687
503.305786	1026.259888	20861.974609	17835.531250	84.742455
503.657379	932.963501	20909.759766	17507.857422	82.970734
504.008820	971.647400	20918.863281	17498.755859	82.854210
504.360291	994.402588	21096.353516	18156.380859	85.374687
504.711700	994.402588	21253.365234	17951.583984	83.702118
505.063080	946.616638	21226.058594	17958.410156	83.886894
505.414368	951.167725	21146.414063	17976.615234	84.304230
505.765656	1037.637451	21053.119141	17874.216797	84.117783
506.116943	932.963501	21353.486328	17587.500000	81.557838
506.468109	960.269775	20693.585938	17535.164063	83.994469
506.819305	989.851563	20880.179688	17482.826172	82.919571
507.170410	1023.984375	20930.240234	17751.337891	84.030640
507.521484	978.473938	20877.904297	17557.917969	83.316170
507.872559	1021.708862	21073.597656	17819.603516	83.772133
508.223480	967.096313	21073.597656	17894.695313	84.189682
508.574493	885.177612	21262.466797	18035.777344	84.165268
508.925385	994.402588	21788.111328	18420.341797	83.803902
509.276245	946.616638	21926.917969	18572.800781	84.013016
509.627045	939.790100	22284.175781	18964.189453	84.445625
509.977814	926.136963	22739.279297	18941.435547	82.589195
510.328613	1014.882263	22832.576172	19025.628906	82.551102
510.679260	1010.331238	22991.861328	19023.353516	81.946167
511.029999	987.576050	23171.628906	19355.580078	82.798233
511.380585	1017.157776	23201.210938	19469.355469	83.177757
511.731140	960.269775	23362.771484	19744.693359	83.849670
512.081726	1008.055725	23556.191406	19822.062500	83.439301
512.432129	1039.912964	23692.722656	19835.714844	82.973381
512.782654	978.473938	24061.357422	19942.664063	82.156937
513.133057	955.718750	23738.232422	20277.166016	84.808235
513.483398	989.851563	23968.060547	20488.789063	84.858383
513.833801	983.024963	24152.376953	19940.388672	81.820862
514.183960	1026.259888	23189.832031	19605.886719	83.829567
514.534302	983.024963	23406.007813	19669.601563	83.336708
514.884460	946.616638	23410.558594	19564.927734	82.880875
515.234619	953.443237	23091.984375	19630.917969	84.366333
515.584717	996.678101	23228.515625	19403.365234	82.794266
515.934753	898.830688	23228.515625	19316.896484	82.482430
516.284851	932.963501	23522.058594	19576.304688	82.532486
516.634766	948.892151	23239.894531	20095.125000	85.892204
516.984741	964.820801	24375.378906	20092.849609	81.706848
517.334595	1028.535400	24841.861328	21039.464844	84.032486
517.684448	994.402588	25497.210938	21592.416016	84.063889
518.034363	1014.882263	26805.634766	22336.511719	82.671608
518.384094	937.514587	27913.814453	23267.201172	82.775200
518.733826	969.371887	29092.533203	24034.050781	82.013107
519.083496	978.473938	29463.443359	24835.033203	83.751396
519.433167	962.545288	29993.640625	24441.369141	80.874741
519.782776	937.514587	29716.025391	24805.453125	82.936668
520.132324	944.341125	29001.511719	24336.695313	83.373886
520.481873	944.341125	28471.316406	23781.468750	82.962723
520.831299	1049.015137	27925.191406	23226.240234	82.516296
521.180786	930.687988	26867.074219	22475.318359	83.067200
521.530151	998.953613	26491.613281	22284.175781	83.495491
521.879517	1019.433350	26300.468750	21767.632813	82.070213
522.228882	953.443237	26352.806641	21774.458984	81.974556
522.578064	987.576050	25906.804688	21471.814453	82.202538
522.927307	930.687988	26020.580078	21592.416016	82.350807
523.276489	935.239075	25786.201172	21480.916016	82.675583
523.625610	976.198425	26459.755859	21747.152344	81.507278
523.974792	992.127075	27005.880859	22304.654297	81.927917
524.323792	889.728638	27486.015625	22516.279297	81.314171
524.672852	1012.606750	27542.904297	23276.302734	83.917999
525.021790	992.127075	28767.134766	23770.089844	82.008842
525.370728	1003.504700	30485.152344	25397.087891	82.741585
525.719604	973.922913	31427.218750	26512.093750	83.860123
526.068420	919.310425	33479.738281	27870.578125	82.773079
526.417297	932.963501	35088.531250	29224.513672	82.831451
526.765991	951.167725	35894.066406	30055.078125	83.289917
527.114746	964.820801	37357.226563	31151.878906	82.948784
527.463379	1019.433350	38074.015625	32096.220703	83.867599
527.812012	976.198425	40579.363281	33836.996094	82.975182
528.160706	996.678101	44131.449219	37282.132813	84.121124
528.509155	1012.606750	49189.933594	41353.039063	83.733231
528.857727	1062.668213	53458.808594	45792.582031	85.368721
529.206177	951.167725	56300.937500	48778.062500	86.408478
529.554565	1003.504700	56191.710938	48891.839844	86.772774
529.902893	994.402588	54935.625000	47244.363281	85.741402
530.251221	957.994263	52339.253906	43969.886719	83.711243
530.599548	1008.055725	48313.859375	40267.617188	82.991005
530.947876	951.167725	44802.730469	37427.765625	83.181976
531.296021	914.759338	41305.253906	34119.160156	82.208450
531.644165	1017.157776	38961.468750	31977.894531	81.595200
531.992249	980.749451	37025.000000	30453.294922	81.767677
532.340454	962.545288	36335.515625	29945.853516	81.936317
532.688354	983.024963	36740.558594	30205.263672	81.723305
533.036438	951.167725	37864.667969	31197.390625	81.938103
533.384338	967.096313	39432.500000	33247.632813	83.920967
533.732239	1012.606750	41605.621094	34694.867188	82.975510
534.080139	932.963501	42103.960938	34963.378906	82.656281
534.427917	946.616638	41940.125000	34376.292969	81.548706
534.775757	932.963501	39448.429688	32733.367188	82.565285
535.123474	1033.086426	38074.015625	31709.382813	82.817299
535.471191	896.555176	35598.246094	29634.107422	82.813118
535.818848	1019.433350	34287.546875	28885.460938	83.761971
536.166382	989.851563	33807.414063	27845.548828	81.833305
536.513977	921.585938	33406.921875	27852.375000	82.901375
536.861511	946.616638	34207.902344	28612.398438	83.177124
537.208984	1030.810913	33928.015625	28432.632813	83.295296
537.556396	939.790100	33862.023438	27786.384766	81.545479
537.903809	976.198425	32872.171875	27117.380859	81.957626
538.251160	935.239075	32066.638672	26434.724609	81.909218
538.598389	1001.229126	30960.736328	25795.304688	82.758621
538.945740	1046.739624	29486.199219	24659.818359	83.029282
539.292969	969.371887	29192.656250	24286.632813	82.617104
539.640137	898.830688	29256.371094	24150.101563	81.993256
539.987244	946.616638	29422.484375	24541.492188	82.859200
540.334351	951.167725	30228.017578	25442.597656	83.654594
540.681458	994.402588	32282.814453	26719.166016	82.218185
541.028442	978.473938	35184.101563	29242.718750	82.630386
541.375366	971.647400	38706.609375	32223.650391	82.819763
541.722290	960.269775	41466.816406	34665.285156	83.208809
542.069153	978.473938	43143.875000	36513.007813	84.274155
542.416016	1012.606750	43473.824219	36224.015625	82.926048
542.762756	989.851563	42204.085938	35416.207031	83.530258
543.109558	944.341125	40850.148438	33743.699219	82.191940
543.456299	894.279663	38672.476563	32137.179688	82.700882
543.802917	951.167725	37111.468750	30983.492188	83.053307
544.149536	962.545288	35668.789063	29504.402344	82.238396
544.496094	985.300537	33263.562500	27713.568359	82.805786
544.842651	1014.882263	31766.269531	26348.255859	82.381241
545.189148	912.483826	29968.609375	24762.216797	82.081604
545.535583	917.034912	29158.523438	24373.103516	83.055351
545.882019	960.269775	28459.939453	23826.978516	83.152664
546.228333	962.545288	27904.710938	23760.988281	84.619934
546.574707	967.096313	28334.785156	23588.048828	82.655693
546.920898	948.892151	28414.427734	23847.457031	83.371994
547.267212	1010.331238	28339.335938	23804.222656	83.405495
547.613342	1001.229126	27868.302734	23615.355469	84.170410
547.959473	1021.708862	27856.925781	23208.037109	82.676163
548.305664	914.759338	27094.626953	22204.531250	81.321159
548.651611	1033.086426	25761.171875	21612.896484	83.224442
548.997742	992.127075	24564.246094	20634.421875	83.328506
549.343689	946.616638	23660.865234	19671.876953	82.438385
549.689575	951.167725	22741.554688	18884.546875	82.299500
550.035522	896.555176	21897.335938	18195.064453	82.370789
550.381287	1001.229126	21128.210938	17678.521484	82.860374
550.727173	1017.157776	21094.078125	17396.357422	81.582230
551.072876	983.024963	20452.380859	16968.558594	82.106125
551.418640	987.576050	20293.093750	16829.751953	82.060356
551.764282	923.861450	20463.757813	16690.945313	80.691750
552.109863	967.096313	20309.023438	16902.568359	82.388229
552.455505	994.402588	20861.974609	16982.210938	80.471878
552.801025	1008.055725	20846.046875	16986.763672	80.546005
553.146545	969.371887	21210.128906	17482.826172	81.585159
553.491943	953.443237	21075.873047	17576.123047	82.607719
553.837341	992.127075	21464.988281	17637.562500	81.304878
554.182800	996.678101	21221.507813	17755.888672	82.864532
554.528015	1010.331238	20670.830078	17004.966797	81.354172
554.873352	964.820801	19983.623047	16832.027344	83.429054
555.218628	978.473938	20179.318359	16668.189453	81.713676
555.563721	935.239075	19756.072266	15894.512695	79.482521
555.908875	987.576050	19323.722656	15919.543945	81.434601
556.254028	930.687988	19057.486328	15657.858398	81.245285
556.599121	942.065613	18859.515625	15523.602539	81.381767
556.944031	903.381775	18745.740234	15550.909180	82.094116
557.289063	996.678101	18666.097656	15327.908203	81.107529
557.633972	960.269775	18704.781250	15116.285156	79.776871
557.978882	969.371887	18593.281250	15362.041016	81.665581
558.323792	994.402588	18352.076172	15193.652344	81.803879
558.668518	998.953613	17846.910156	14870.528320	82.333862
559.013306	1003.504700	18176.859375	14891.007813	80.866570
559.358032	987.576050	17931.103516	14602.016602	80.351868
559.702637	1014.882263	18049.431641	14895.559570	81.485443
560.047363	994.402588	18272.431641	14779.507813	79.784012
560.391846	1019.433350	18047.156250	14840.946289	81.170647
560.736450	964.820801	17926.552734	14622.497070	80.520523
561.080933	948.892151	18256.503906	15114.008789	81.843277
561.425354	939.790100	18092.666016	14759.028320	80.565140
561.769775	957.994263	18461.300781	14961.548828	80.005196
562.114136	1012.606750	18368.003906	14906.936523	80.057693
562.458496	1001.229126	18374.830078	14856.875000	79.751144
562.802673	951.167725	18456.750000	14836.395508	79.318855
563.146912	980.749451	18149.554688	14852.324219	80.795227
563.491150	946.616638	18003.919922	14697.588867	80.616341
563.835266	980.749451	18181.412109	14597.465820	79.163910
564.179443	948.892151	18167.757813	14624.772461	79.423813
564.523438	894.279663	18333.871094	14772.680664	79.579849
564.867493	973.922913	18072.185547	14838.670898	81.088638
565.211426	1003.504700	18170.033203	14891.007813	80.898720
565.555359	928.412476	18882.271484	15284.672852	79.961975
565.899231	987.576050	19184.916016	15487.194336	79.679878
566.243042	1008.055725	19794.755859	15951.400391	79.542152
566.586914	973.922913	20065.542969	16622.679688	81.966629
566.930603	998.953613	20318.125000	16654.537109	81.036514
567.274292	989.851563	20243.033203	16447.464844	80.286018
567.617981	978.473938	20281.716797	16729.628906	81.598495
567.961609	996.678101	20126.982422	16160.749023	79.267273
568.305237	951.167725	19726.490234	15846.726563	79.335831
568.648682	1021.708862	19574.029297	15817.145508	79.749786
568.992188	955.718750	19182.640625	15719.297852	80.998749
569.335632	969.371887	18859.515625	15368.867188	80.488426
569.679016	1026.259888	18820.832031	15250.540039	79.936058
570.022461	919.310425	18934.609375	15239.163086	79.487175
570.365662	939.790100	18818.556641	15273.295898	80.170555
570.708984	969.371887	18775.322266	15182.274414	79.821075
571.052185	942.065613	19280.488281	15382.520508	78.744263
571.395386	989.851563	19175.814453	15880.859375	81.881874
571.738525	1010.331238	19815.234375	15874.033203	79.041634
572.081604	1001.229126	20229.380859	16440.638672	80.295853
572.424683	978.473938	20372.738281	16477.046875	79.913185
572.767578	1039.912964	20791.433594	16820.650391	79.896309
573.110596	1062.668213	20513.820313	16606.750000	79.913422
573.453552	962.545288	20450.105469	16663.638672	80.569824
573.796387	1033.086426	20202.074219	16447.464844	80.413109
574.139282	948.892151	20154.287109	16290.453125	79.881516
574.481995	962.545288	19899.429688	16254.044922	80.749817
574.824768	1008.055725	19742.417969	15805.767578	78.987007
575.167480	992.127075	19840.265625	16094.758789	80.127975
575.510132	980.749451	19314.621094	15803.492188	80.848953
575.852722	894.279663	19410.193359	15808.042969	80.545654
576.195251	967.096313	19118.925781	15698.818359	81.158325
576.537842	1014.882263	19159.884766	15974.156250	82.442947
576.880188	948.892151	19023.353516	15227.785156	79.000381
577.222717	998.953613	18404.412109	14863.702148	79.657471
577.565063	1021.708862	17997.093750	14454.108398	79.128693
577.907410	1012.606750	17999.369141	14285.719727	78.137985
578.249756	953.443237	17130.121094	14058.167969	81.009987
578.591919	964.820801	16936.701172	13803.309570	80.381821
578.934204	955.718750	16602.199219	13548.451172	80.482841
579.276306	1005.780212	16279.076172	13136.582031	79.424911
579.618469	937.514587	15960.502930	12770.222656	78.764008
579.960571	928.412476	15962.778320	12981.845703	80.172539
580.302551	1014.882263	15250.540039	12774.773438	82.608696
580.644531	994.402588	15227.785156	12606.384766	81.582733
580.986511	1044.463989	15332.458984	12476.680664	80.012741
581.328369	901.106262	15218.683594	12299.189453	79.609024
581.670227	983.024963	15364.316406	12217.271484	78.117088
582.012024	985.300537	15104.907227	12387.935547	80.757454
582.353821	942.065613	14995.681641	12351.527344	81.185242
582.695496	1005.780212	15050.294922	12171.760742	79.504211
583.037231	1026.259888	14809.089844	12199.067383	81.063232
583.378845	957.994263	14868.252930	12315.118164	81.645668
583.720398	901.106262	14608.843750	12001.096680	80.976097
584.062012	948.892151	14415.423828	11914.626953	81.429543
584.403442	946.616638	14595.190430	11941.933594	80.560188
584.744934	1028.535400	14542.853516	11832.708008	79.946121
585.086365	953.443237	14447.281250	11837.258789	80.657669
585.427734	957.994263	14344.882813	11860.014648	81.438049
585.768982	948.892151	14183.321289	11561.920898	80.192566
586.110291	973.922913	14297.097656	11627.911133	79.965836
586.451599	896.555176	14103.677734	11525.512695	80.478973
586.792725	971.647400	14470.037109	11919.177734	81.102493
587.133850	1010.331238	13987.625977	11805.402344	83.184296
587.474915	971.647400	14376.740234	11887.320313	81.429298
587.815979	989.851563	14358.536133	11639.289063	79.659576
588.157043	939.790100	14549.679688	11725.758789	79.250961
588.497925	926.136963	14408.597656	11623.360352	79.341774
588.838867	1028.535400	14549.679688	11960.137695	80.848206
589.179749	1074.045776	14492.791992	11659.768555	78.887573
589.520569	955.718750	14941.069336	11957.861328	78.669052
589.861450	1023.984375	14979.753906	12153.556641	79.748894
590.202087	951.167725	14902.385742	12192.240234	80.574127
590.542847	964.820801	15148.141602	12087.566406	78.421310
590.883484	969.371887	14909.211914	12208.168945	80.623573
591.224121	930.687988	14781.783203	12083.015625	80.515854
591.564636	901.106262	14888.732422	12258.230469	81.194077
591.905151	962.545288	14827.293945	11946.484375	79.222061
592.245667	976.198425	14563.333008	11775.820313	79.484177
592.585999	1001.229126	14495.067383	11814.503906	80.134911
592.926453	987.576050	14278.892578	11618.809570	79.986305
593.266724	971.647400	14520.098633	11741.687500	79.492775
593.607056	1005.780212	14235.658203	11639.289063	80.374954
593.947388	1028.535400	14319.852539	11712.105469	80.380074
594.287476	1049.015137	14483.689453	11880.494141	80.623306
594.627686	989.851563	14633.874023	12030.678711	80.920616
594.967773	948.892151	15000.233398	12105.770508	79.400810
595.307861	1010.331238	15293.775391	12319.669922	79.177956
595.647888	946.616638	15063.947266	12433.445313	81.366859
595.987854	1001.229126	15334.734375	12449.374023	79.869820
596.327820	998.953613	15628.277344	12567.701172	79.079170
596.667725	853.320313	16201.708008	13102.449219	79.807266
597.007568	939.790100	16556.689453	13332.276367	79.353050
597.347351	1008.055725	17216.589844	13703.186523	78.323746
597.687073	1023.984375	17466.898438	13837.442383	77.926926
598.026794	962.545288	17407.734375	13821.513672	78.192886
598.366455	951.167725	16975.384766	13320.898438	77.193977
598.706116	937.514587	16424.708984	13204.847656	79.209526
599.045654	980.749451	15976.431641	12781.600586	78.694992
599.385193	989.851563	15025.263672	12419.792969	81.436447
599.724731	978.473938	14802.262695	11855.462891	78.683128
600.064087	912.483826	14770.405273	11709.830078	77.914619
600.403564	971.647400	14037.687500	11384.430664	79.693489
600.742920	921.585938	13980.799805	11202.388672	78.724518
601.082153	955.718750	13789.656250	11272.929688	80.390068
601.421387	926.136963	13996.728516	11184.184570	78.481895
601.760620	973.922913	13527.970703	11081.786133	80.514771
602.099854	946.616638	13871.575195	11088.613281	78.468315
602.438843	973.922913	13762.349609	11234.246094	80.231316
602.778015	937.514587	13960.320313	11350.297852	79.958061
603.117065	1042.188477	14617.945313	11705.279297	78.545090
603.456055	873.799988	14827.293945	12110.321289	80.528374
603.794983	983.024963	15059.396484	12201.342773	79.696091
604.133850	969.371887	15737.501953	12692.855469	79.383667
604.472778	996.678101	16229.014648	13132.030273	79.668358
604.811584	953.443237	16706.873047	13427.848633	79.185333
605.150330	948.892151	17339.468750	13689.533203	77.731499
605.489075	948.892151	17318.988281	14053.616211	80.052826
605.827698	948.892151	17328.091797	13830.615234	78.646843
606.166382	971.647400	16806.996094	13441.500977	78.746948
606.504883	985.300537	16376.922852	12943.162109	77.690712
606.843445	985.300537	16031.043945	12597.283203	77.177856
607.181946	876.075500	15546.358398	12422.068359	78.703278
607.520386	951.167725	14961.548828	12214.996094	80.396301
607.858826	942.065613	15004.784180	11634.738281	76.035599
608.197083	1012.606750	14456.383789	11468.625000	77.775902
608.535461	971.647400	14429.077148	11434.492188	77.747719
608.873718	989.851563	14265.240234	11327.542969	77.871101
609.211914	935.239075	14479.138672	11714.380859	79.586693
609.550171	1014.882263	14834.120117	12208.168945	80.997856
609.888245	971.647400	15468.990234	12137.627930	77.020874
610.226318	935.239075	15637.378906	12779.325195	80.560287
610.564392	1023.984375	15905.890625	12806.630859	79.174309
610.902344	1019.433350	15432.582031	12872.621094	82.238708
611.240295	955.718750	15268.744141	12726.988281	82.241661
611.578247	1017.157776	14916.039063	12747.467773	84.397514
611.916138	1008.055725	14595.190430	12485.782227	84.474960
612.253845	964.820801	14128.708984	12078.464844	84.425240
612.591675	953.443237	13939.840820	11737.136719	83.038376
612.929382	955.718750	13598.512695	11482.278320	83.261337
613.267090	989.851563	13236.704102	10993.041016	81.679672
613.604736	985.300537	13170.714844	10849.683594	80.952377
613.942261	955.718750	12959.090820	10606.202148	80.398102
614.279785	971.647400	12804.355469	10610.753906	81.461540
614.617310	955.718750	12508.538086	10294.456055	80.835136
614.954712	921.585938	12353.802734	10262.598633	81.707802
615.292175	973.922913	12262.781250	10028.219727	80.205605
615.629517	944.341125	12397.037109	10164.750977	80.508644
615.966797	1014.882263	12265.056641	10085.108398	80.622986
616.304138	1012.606750	12312.842773	9843.903320	78.151436
616.641296	967.096313	12255.955078	9937.199219	79.459785
616.978516	1014.882263	11978.341797	9937.199219	81.382317
617.315552	971.647400	12001.096680	9677.790039	78.935425
617.652771	923.861450	12342.424805	9862.107422	78.278198
617.989685	998.953613	12296.914063	9746.055664	77.421951
618.326721	994.402588	12331.046875	9675.514648	76.575676
618.663696	987.576050	12121.699219	9859.832031	79.685272
619.000549	1033.086426	12169.485352	9755.157227	78.320389
619.337463	1001.229126	12246.852539	9643.657227	76.851479
619.674194	1008.055725	11966.963867	9841.627930	80.606316
620.010986	964.820801	12244.577148	9698.269531	77.425873
620.347778	971.647400	12044.332031	9736.953125	79.161522
620.684387	942.065613	11561.920898	9850.729492	83.886864
621.020996	951.167725	11787.197266	9725.576172	80.974388
621.357605	910.208313	11871.391602	9482.094727	78.202202
621.694214	967.096313	11607.431641	9507.125977	80.260910
622.030579	935.239075	11571.023438	9661.861328	82.049637
622.367065	1014.882263	11691.625977	9265.920898	77.280479
622.703430	969.371887	11611.982422	9343.288086	78.682915
623.039795	944.341125	11659.768555	9181.726563	76.874077
623.376160	896.555176	11596.053711	9209.032227	77.690338
623.712402	935.239075	11530.063477	9172.624023	77.749138
624.048645	1008.055725	11493.655273	9275.022461	78.841148
624.384766	994.402588	11434.492188	9184.001953	78.443764
624.720886	939.790100	11370.777344	9165.797852	78.861259
625.057007	1019.433350	11778.095703	9341.012695	77.347710
625.392944	944.341125	11748.513672	9427.482422	78.517273
625.729004	923.861450	11625.635742	9436.584961	79.544975
626.064941	1023.984375	11935.106445	9655.035156	79.103241
626.400818	935.239075	12192.240234	9839.351563	79.098442
626.736633	932.963501	12531.292969	9907.617188	77.378845
627.072449	932.963501	12590.457031	9984.985352	77.649811
627.408264	1003.504700	12597.283203	10167.027344	79.038277
627.743896	957.994263	12758.844727	10169.302734	78.056313
628.079590	998.953613	12790.702148	9884.862305	75.357002
628.415161	992.127075	12765.671875	9975.882813	76.304596
628.750793	1014.882263	12262.781250	9996.363281	79.850304
629.086365	955.718750	12228.648438	9557.187500	76.301979
629.421753	942.065613	12071.637695	9341.012695	75.465141
629.757263	919.310425	11805.402344	9566.289063	79.431435
630.092651	960.269775	11928.280273	9432.034180	77.240669
630.427917	960.269775	11348.022461	9263.645508	79.934288
630.763184	976.198425	11402.634766	8942.796875	76.407684
631.098511	942.065613	11309.338867	9145.318359	79.126427
631.433716	1019.433350	11099.990234	9111.185547	80.270882
631.768799	992.127075	11061.306641	8840.398438	77.943504
632.103943	985.300537	10747.285156	8690.213867	78.927734
632.438965	1026.259888	10865.612305	8685.663086	77.844589
632.773987	985.300537	10799.622070	8658.356445	78.182236
633.109070	983.024963	10578.896484	8606.019531	79.440361
633.443848	994.402588	10308.109375	8376.192383	79.257271
633.778870	1021.708862	10647.162109	8606.019531	78.794319
634.113708	1005.780212	10603.926758	8492.243164	77.999046
634.448425	926.136963	10788.244141	8576.437500	77.572678
634.783264	994.402588	10917.949219	8305.651367	73.675766
635.117859	1003.504700	10549.314453	8517.274414	78.712753
635.452576	951.167725	10804.172852	8467.212891	76.281754
635.787170	953.443237	10628.958008	8262.416016	75.540916
636.121704	964.820801	10376.375000	8398.947266	78.989357
636.456177	957.994263	10394.579102	8100.854004	75.693268
636.790588	987.576050	10280.802734	8166.844238	77.252693
637.125122	978.473938	10116.965820	8148.640137	78.461151
637.459412	971.647400	10062.352539	7941.567383	76.670837
637.793762	957.994263	9825.699219	7948.394043	78.829865
638.128052	944.341125	9802.943359	7720.842285	76.496277
638.462280	957.994263	9695.994141	7627.545898	76.328125
638.796509	892.004150	9673.239258	7873.301758	79.502457
639.130615	985.300537	9468.442383	7616.167969	78.165230
639.464722	998.953613	9620.902344	7438.677734	74.689888
639.798767	955.718750	9500.299805	7443.228516	75.925430
640.132751	1035.361938	9240.889648	7411.371094	77.703835
640.466736	1033.086426	9331.911133	7340.830078	76.007675
640.800598	957.994263	9229.512695	7334.003418	77.083900
641.134521	980.749451	8958.725586	7477.361328	81.431831
641.468262	989.851563	9045.195313	7263.462402	77.881355
641.802063	978.473938	9195.379883	7192.921387	75.630013
642.135803	917.034912	8910.939453	7249.809082	79.220039
642.469421	942.065613	8888.184570	7156.512695	78.207329
642.803101	971.647400	8976.929688	7142.859863	77.089256
643.136658	971.647400	8669.734375	7031.359375	78.717117
643.470215	969.371887	8742.550781	7142.859863	79.420380
643.803711	969.371887	8712.968750	6849.317383	75.932999
644.137085	939.790100	8847.224609	7111.002441	78.043167
644.470581	964.820801	8726.622070	6992.675293	77.660507
644.803833	985.300537	8772.132813	6972.195801	76.884865
645.137207	1001.229126	8642.427734	6965.369141	78.052414
645.470459	985.300537	8672.009766	6765.123535	75.192429
645.803589	996.678101	8560.508789	6951.715820	78.730446
646.136780	1039.912964	8772.132813	6935.787598	76.250740
646.469849	1012.606750	8519.549805	7013.155273	79.933319
646.802979	998.953613	8656.081055	7008.604004	78.484398
647.135986	946.616638	8826.745117	6944.889648	76.118973
647.468994	969.371887	8799.438477	6862.970703	75.268822
647.801941	989.851563	8628.774414	6885.726074	77.182014
648.134766	939.790100	8703.867188	6979.022461	77.784294
648.467651	1019.433350	8990.583008	6924.409668	74.079361
648.800354	992.127075	8685.663086	6963.093750	77.610176
649.133179	937.514587	8667.458984	6824.287109	76.155434
649.465881	1060.392700	8790.336914	6851.593262	74.919044
649.798462	917.034912	8699.316406	7111.002441	79.590645
650.131104	976.198425	8533.203125	6969.920410	79.313461
650.463623	992.127075	8815.367188	6883.450195	75.305412
650.796143	973.922913	8724.346680	6790.154297	75.044044
651.128662	1008.055725	8681.112305	6862.970703	76.304855
651.461060	989.851563	8763.030273	6869.797363	75.644035
651.793396	907.932800	8986.031250	7022.257324	75.690147
652.125732	951.167725	8865.428711	7124.655762	78.004608
652.458008	976.198425	8790.336914	6824.287109	74.839836
652.790222	1005.780212	8724.346680	6876.624023	76.061325
653.122437	921.585938	8772.132813	7008.604004	77.536232
653.454529	914.759338	8774.408203	6979.022461	77.156921
653.786621	935.239075	8460.386719	6810.633789	78.076805
654.118713	957.994263	8533.203125	6701.408691	75.818565
654.450623	1017.157776	8544.581055	6708.235352	75.604591
654.782654	946.616638	8489.967773	6555.775391	74.358978
655.114502	989.851563	8453.559570	6726.439453	76.859756
655.446350	1026.259888	8235.109375	6617.214355	77.556824
655.778198	973.922913	8526.375977	6653.623047	75.203384
656.109863	1001.229126	8405.773438	6628.592285	75.998779
656.441650	985.300537	8310.202148	6594.459473	76.576584
656.773254	1023.984375	8273.793945	6544.397949	76.145638
657.104919	962.545288	8291.998047	6535.295898	76.032288
657.436462	998.953613	8255.589844	6562.602051	76.669800
657.767944	957.994263	8357.988281	6544.397949	75.492004
658.099548	983.024963	8451.284180	6915.307617	79.433273
658.430908	1058.117188	8535.478516	6890.276855	77.997566
658.762268	919.310425	8840.398438	6883.450195	75.294449
659.093628	1014.882263	9081.603516	7220.227539	76.925247
659.424927	944.341125	9284.125000	7409.095703	77.517044
659.756226	989.851563	9589.044922	7688.984863	77.904205
660.087341	953.443237	9805.218750	7557.004395	74.601540
660.418518	983.024963	9766.535156	7748.148438	77.020729
660.749573	937.514587	9650.483398	7588.861816	76.338470
661.080627	964.820801	9541.258789	7550.178223	76.784302
661.411621	971.647400	9347.839844	7591.137207	79.027435
661.742554	971.647400	9270.471680	7295.319824	76.199615
662.073547	994.402588	9024.715820	7115.553711	76.225563
662.404297	937.514587	8872.255859	7045.012207	76.971603
662.735229	1030.810913	8378.467773	6965.369141	80.768036
663.065979	953.443237	8606.019531	6692.306641	74.992569
663.396667	937.514587	8419.426758	6514.815918	74.543793
663.727417	1028.535400	8153.190918	6378.284668	75.087830
664.057922	998.953613	7993.904785	6462.479004	78.106697
664.388611	939.790100	8037.139648	6150.732910	73.420967
664.719116	992.127075	7868.750977	6107.498047	74.387825
665.049622	978.473938	7720.842285	6189.416504	77.286530
665.380005	953.443237	7732.219727	6155.283691	76.737160
665.710388	994.402588	7682.158203	6064.262695	75.808098
666.040771	946.616638	7764.077148	6018.752441	74.399193
666.371033	1001.229126	7679.882813	6244.029297	78.500854
666.701294	992.127075	7459.157227	6032.405762	77.938072
667.031555	967.096313	7568.382324	5989.170898	76.077217
667.361633	964.820801	7711.740234	5952.762207	73.929169
667.691772	1019.433350	7561.555664	6032.405762	76.626091
668.021790	980.749451	7399.993652	5961.864258	77.596596
668.351807	932.963501	7816.414063	6075.640625	74.710747
668.681763	962.545288	7463.708008	5995.997070	77.423866
669.011719	951.167725	7563.831055	6068.813965	77.391609
669.341614	942.065613	7561.555664	6098.395508	77.896179
669.671387	960.269775	7700.362305	6091.569336	76.130997
670.001221	930.687988	7638.923340	6027.854492	75.983719
670.330933	944.341125	7645.750000	6052.885254	76.230896
670.660583	946.616638	7643.474609	5895.874512	73.904175
670.990173	944.341125	7677.607422	6025.579102	75.464684
671.319763	994.402588	7420.473145	5930.007324	76.805954
671.649292	960.269775	7495.565430	5882.221191	75.313362
671.978821	960.269775	7327.176758	5902.701172	77.626884
672.308289	973.922913	7313.523926	5832.159668	76.633163
672.637695	980.749451	7390.891602	5786.649414	74.973373
672.966980	1026.259888	7281.666504	5738.863281	75.336487
673.296326	1012.606750	7390.891602	5734.312500	74.027824
673.625610	967.096313	7277.115723	5843.537598	77.280922
673.954773	994.402588	7161.063965	5818.506836	78.228790
674.283936	1042.188477	7283.941895	5795.751465	76.157494
674.613037	971.647400	6972.195801	5547.719727	76.260902
674.942078	1014.882263	7085.971680	5661.495605	76.536728
675.271118	926.136963	7136.033203	5538.617676	74.276283
675.600098	1021.708862	7060.940918	5675.148926	77.053505
675.928955	957.994263	7045.012207	5593.229980	76.149536
676.257813	960.269775	7099.625000	5549.995117	74.759079
676.586670	948.892151	7008.604004	5597.781250	76.717987
676.915466	1008.055725	7124.655762	5418.015137	72.098213
677.244141	992.127075	7056.390137	5522.688965	74.709190
677.572876	962.545288	7017.706055	5588.679199	76.399849
677.901489	964.820801	6940.338379	5488.556152	75.704491
678.230042	1028.535400	6935.787598	5486.280762	75.462250
678.558594	1019.433350	7029.083984	5392.984375	72.775459
678.887085	937.514587	7042.736816	5622.812012	76.742455
679.215515	942.065613	6994.951172	5577.301270	76.578941
679.543945	992.127075	7279.391113	5686.526367	74.665215
679.872253	1019.433350	7113.277832	5782.098145	78.155342
680.200562	1008.055725	7343.105469	5932.282715	77.729889
680.528809	962.545288	7418.197754	5877.670410	76.136765
680.856995	930.687988	7618.443848	6027.854492	76.216393
681.185120	939.790100	7864.199707	6216.722656	76.207687
681.513306	957.994263	7850.546875	5952.762207	72.466156
681.841309	1046.739624	7707.188965	6143.906250	76.528870
682.169373	919.310425	7607.065918	6018.752441	76.250427
682.497314	1019.433350	7632.096680	6139.354980	77.426018
682.825134	887.453125	7557.004395	5732.037109	72.637329
683.153076	987.576050	7657.127441	5879.945801	73.353806
683.480896	978.473938	7379.514160	5927.731445	77.319580
683.808655	1008.055725	7454.605957	5700.179688	72.785034
684.136414	1028.535400	7099.625000	5686.526367	76.724136
684.464050	987.576050	7051.838867	5497.658203	74.371483
684.791626	962.545288	6812.909180	5559.097168	78.568649
685.119263	1001.229126	6810.633789	5415.739746	75.989037
685.446838	1085.423462	6724.164063	5406.637207	76.634377
685.774292	944.341125	6646.796387	5158.605469	73.902626
686.101685	935.239075	6769.674316	5295.136719	74.726982
686.429077	942.065613	6585.357422	5204.116211	75.524193
686.756348	907.932800	6553.500000	5135.850586	74.889160
687.083679	921.585938	6553.500000	5204.116211	76.040405
687.410950	989.851563	6546.673340	5124.472656	74.406219
687.738159	953.443237	6478.407715	5090.339844	74.876434
688.065308	964.820801	6696.857910	5304.238770	75.704636
688.392395	980.749451	6692.306641	5418.015137	77.689247
688.719421	978.473938	6592.183594	5247.351074	76.043785
689.046448	1003.504700	6635.418457	5340.647461	77.010109
689.373413	973.922913	6496.611816	5197.289551	76.473015
689.700317	939.790100	6512.540527	5297.412598	78.195183
690.027100	1028.535400	6726.439453	5165.432129	72.603828
690.353943	932.963501	6426.070801	5065.309082	75.227837
690.680725	953.443237	6305.468262	5047.104980	76.488091
691.007446	1012.606750	6284.988281	4921.951660	74.147614
691.334106	1026.259888	6002.823730	4835.481934	76.543221
691.660645	983.024963	6107.498047	4730.807617	73.134987
691.987244	1026.259888	6061.987305	4842.308105	75.779488
692.313721	1008.055725	5964.140137	4837.757324	77.272728
692.640259	996.678101	5895.874512	4614.756348	73.850441
692.966675	1074.045776	5838.986328	4639.787109	74.832863
693.293030	971.647400	5916.354004	4594.276367	73.262772
693.619324	1044.463989	5791.200684	4537.388672	73.585808
693.945618	969.371887	5925.456055	4532.837402	71.900833
694.271851	939.790100	5838.986328	4532.837402	73.339523
694.598083	973.922913	5609.158691	4551.041504	77.172310
694.924194	932.963501	5775.271973	4603.378418	75.798866
695.250244	967.096313	5593.229980	4617.031738	78.898186
695.576294	1003.504700	5732.037109	4544.214844	74.879692
695.902283	964.820801	5584.127930	4489.602539	76.305420
696.228210	928.412476	5625.087402	4617.031738	78.536819
696.554138	996.678101	5768.445313	4557.868164	74.630424
696.879944	939.790100	5852.639648	4544.214844	73.367294
697.205750	969.371887	5877.670410	4705.776855	76.124245
697.531433	951.167725	5952.762207	4723.980957	75.432205
697.857178	921.585938	6021.027832	4787.695801	75.814369
698.182739	987.576050	6155.283691	4892.369629	75.561424
698.508423	944.341125	6628.592285	4972.013184	70.856689
698.833984	971.647400	6787.878418	5317.892090	74.726135
699.159485	971.647400	6833.389160	5415.739746	75.815216
699.484924	973.922913	7113.277832	5650.118164	76.167534
699.810303	921.585938	7393.166992	5736.587891	74.402252
700.135681	939.790100	7190.645508	5700.179688	76.155807
700.460999	889.728638	7129.206543	5547.719727	74.653542
700.786255	973.922913	6958.542480	5333.820801	72.851715
701.111450	866.973450	6787.878418	5190.462891	73.020752
701.436646	969.371887	6494.336426	5201.840332	76.606255
701.761719	1060.392700	6360.080566	4926.502441	72.949760
702.086792	973.922913	6362.355957	4865.063477	72.212837
702.411865	987.576050	5970.966797	4564.694824	71.780823
702.736816	1001.229126	5791.200684	4687.572754	76.959618
703.061646	937.514587	5763.894043	4412.234863	71.994347
703.386536	1010.331238	5656.944824	4466.847168	74.387848
703.711365	1033.086426	5326.994141	4387.204102	78.113411
704.036194	1044.463989	5306.514648	4334.867188	77.202347
704.360901	1019.433350	5342.922852	4273.428223	75.263168
704.685547	1023.984375	5199.564941	4214.264648	76.403275
705.010132	994.402588	5279.208496	3970.783691	69.463623
705.334717	964.820801	5067.584961	4066.355713	75.596230
705.659302	973.922913	5163.156738	4029.947266	72.949478
705.983765	973.922913	4965.186523	4014.018799	76.168755
706.308228	980.749451	5119.921875	4011.743164	73.227043
706.632568	967.096313	5156.330078	3970.783691	71.700165
706.956909	953.443237	5042.554199	3988.988037	74.234840
707.281189	951.167725	5076.687012	4027.671875	74.572525
707.605408	939.790100	5067.584961	4098.212891	76.515984
707.929626	967.096313	4874.165527	4080.008789	79.673851
708.253784	892.004150	5144.952637	4027.671875	73.729271
708.577820	989.851563	5008.421387	4080.008789	76.896942
708.901855	964.820801	4999.319336	4043.600586	76.311340
709.225830	960.269775	5076.687012	4118.692871	76.727478
709.549805	1003.504700	5067.584961	4077.733398	75.643898
709.873718	971.647400	4937.880371	4155.101074	80.263908
710.197510	1005.780212	5188.187500	4123.243652	74.537537
710.521362	962.545288	5069.860352	4102.764160	76.454300
710.845093	1001.229126	5190.462891	4089.110840	73.709938
711.168701	989.851563	5320.167480	4116.416992	72.201782
711.492432	953.443237	5349.749512	4116.416992	71.946167
711.816040	1021.708862	5370.229004	4171.029785	72.422821
712.139587	923.861450	5486.280762	4237.019531	72.618446
712.463074	994.402588	5342.922852	4305.285156	76.138138
712.786499	946.616638	5361.126953	4230.193359	74.381447
713.109924	944.341125	5317.892090	4246.121582	75.494278
713.433350	948.892151	5358.851563	4198.335938	73.684212
713.756592	1055.841675	5122.197266	4171.029785	76.608849
714.079834	955.718750	5169.983398	4145.999023	75.701942
714.403015	1014.882263	5158.605469	4100.488281	74.464577
714.726196	996.678101	5188.187500	4123.243652	74.592834
715.049255	1012.606750	4992.492676	3907.069336	72.727272
715.372375	939.790100	4997.043457	4086.835449	77.565910
715.695435	960.269775	5049.380859	4034.498291	75.180855
716.018311	967.096313	5081.237793	4077.733398	75.608414
716.341248	923.861450	5044.829590	4036.773926	75.538376
716.664063	1026.259888	4994.768066	3943.477539	73.509178
716.987000	939.790100	5051.656250	4018.569824	74.875488
717.309692	989.851563	4906.022949	3847.905762	72.980827
717.632385	951.167725	4919.675781	3968.508301	76.032112
717.955078	948.892151	4667.093262	3806.946289	76.866585
718.277649	1005.780212	4710.328125	3715.925537	73.157249
718.600220	957.994263	4819.553223	3806.946289	73.777252
718.922791	1008.055725	4573.796875	3679.517090	74.920227
719.245300	985.300537	4587.449707	3718.200928	75.868607
719.567688	996.678101	4475.949219	3702.272461	77.763252
719.890015	976.198425	4548.766113	3604.425049	73.566879
720.212341	967.096313	4423.612305	3442.863037	71.626068
720.534607	937.514587	4428.163574	3449.689453	71.968704
720.856873	937.514587	4296.183105	3508.853027	76.558266
721.179016	937.514587	4232.468750	3358.668701	73.480659
721.501160	894.279663	4118.692871	3415.556641	78.193359
721.823242	953.443237	4184.682617	3242.617188	70.845070
722.145264	1064.943726	4068.631104	3294.954102	74.242416
722.467224	1003.504700	4109.590332	3363.219727	75.970703
722.789185	951.167725	4089.110840	3315.433838	75.344452
723.111023	951.167725	4102.764160	3299.505127	74.512627
723.432861	960.269775	4100.488281	3279.025391	73.840584
723.754578	948.892151	4089.110840	3324.535889	75.652176
724.076294	967.096313	3979.885986	3253.994629	75.906342
724.397949	946.616638	3925.273438	3197.106689	75.553856
724.719666	976.198425	3941.202148	3374.597412	80.890251
725.041260	985.300537	4109.590332	3256.270264	72.687553
725.362732	973.922913	3948.028564	3276.750000	77.429230
725.684265	914.759338	3988.988037	3224.413086	75.129539
726.005676	930.687988	4048.151611	3260.821289	74.744522
726.327087	928.412476	3988.988037	3215.310791	74.721184
726.648438	885.177612	4020.845215	3324.535889	77.793915
726.969666	976.198425	4200.611328	3199.382324	68.948486
727.290894	948.892151	4182.407227	3201.657715	69.669243
727.612061	1001.229126	4139.172363	3363.219727	75.271935
727.933228	964.820801	4277.979004	3342.739990	71.771980
728.254395	951.167725	4284.805664	3267.647949	69.488060
728.575378	987.576050	4248.397461	3390.525879	73.691551
728.896301	953.443237	4182.407227	3367.770752	74.770973
729.217285	1058.117188	4293.907715	3406.454590	72.573837
729.538147	1042.188477	4332.591797	3420.107666	72.268318
729.858948	992.127075	4237.019531	3411.005615	74.544174
730.179810	980.749451	4396.306152	3474.720215	73.017990
730.500549	957.994263	4268.876953	3349.566650	72.233673
730.821228	996.678101	4232.468750	3322.260254	71.870598
731.141846	998.953613	4293.907715	3433.760986	73.895035
731.462402	967.096313	4330.315918	3415.556641	72.801086
731.782898	1005.780212	4480.500488	3438.312012	70.006546
732.103455	942.065613	4555.592773	3483.822266	70.340042
732.423889	971.647400	4530.562012	3422.383301	68.861893
732.744263	983.024963	4359.897949	3436.036377	72.641510
733.064636	973.922913	4364.448730	3447.414063	72.953026
733.384888	901.106262	4473.673828	3424.658691	70.636940
733.705200	998.953613	4343.969238	3476.995850	74.081635
734.025330	978.473938	4353.071289	3470.169189	73.836815
734.345520	1033.086426	4439.541016	3445.138428	70.808281
734.665527	969.371887	4341.693848	3481.546875	74.493927
734.985596	932.963501	4218.815430	3415.556641	75.554016
735.305542	998.953613	4200.611328	3367.770752	73.987206
735.625549	994.402588	4000.365479	3319.984863	77.365631
735.945435	1010.331238	4114.141602	3331.362549	74.780060
736.265259	896.555176	4057.253662	3251.719238	74.514038
736.585083	905.657288	4036.773926	3274.474365	75.654068
736.904785	987.576050	3836.528076	3183.453613	77.076668
737.224426	962.545288	3932.099854	3058.300049	70.574722
737.544128	969.371887	3936.650879	3103.810303	71.932518
737.863708	978.473938	3891.140625	3092.432861	72.578125
738.183289	939.790100	3922.997803	3058.300049	71.014496
738.502808	951.167725	3984.437012	3067.402100	69.767441
738.822205	1005.780212	3954.855225	3115.187988	71.527779
739.141541	946.616638	3954.855225	3242.617188	76.323753
739.460938	1049.015137	3970.783691	3197.106689	73.520248
739.780212	994.402588	4123.243652	3235.790527	71.636360
740.099426	932.963501	3934.375488	3158.422852	74.147079
740.418640	987.576050	3979.885986	3231.239502	74.980988
740.737793	935.239075	4070.906738	3217.586426	72.786644
741.056885	957.994263	4050.427002	3276.750000	74.981613
741.375977	983.024963	4054.978027	3222.137451	72.888893
741.694946	953.443237	3888.864990	3181.177979	75.891472
742.013855	926.136963	3872.936523	3083.330566	73.204628
742.332703	976.198425	3877.487549	2969.554688	68.705879
742.651550	969.371887	3893.416016	3056.024414	71.361870
742.970398	878.351013	3672.690674	2983.207764	75.325729
743.289124	939.790100	3638.557861	2983.207764	75.716690
743.607788	971.647400	3800.119629	2976.381104	70.876907
743.926453	978.473938	3770.538086	3001.411865	72.453133
744.245056	994.402588	3704.547852	2908.115479	70.612930
744.563599	955.718750	3661.312988	2987.758789	75.105125
744.882141	944.341125	3718.200928	2887.635986	70.057426
745.200500	942.065613	3574.843262	2926.319824	75.367332
745.518860	983.024963	3659.037354	2985.483398	74.829941
745.837219	939.790100	3583.945313	2887.635986	73.666092
746.155518	951.167725	3542.985840	2862.605225	73.748909
746.473755	946.616638	3486.097900	2862.605225	75.448029
746.791992	998.953613	3681.792725	2880.809326	70.144188
747.110107	955.718750	3461.067139	2855.778564	75.840141
747.428162	985.300537	3618.078125	2780.686523	68.193604
747.746216	983.024963	3465.618164	2851.227539	75.252060
748.064148	1010.331238	3536.159424	2662.359375	65.405403
748.382080	1028.535400	3433.760986	2796.614990	73.509926
748.700073	987.576050	3383.699463	2823.921387	76.638176
749.017822	1014.882263	3531.608398	2835.298828	72.332726
749.335632	985.300537	3461.067139	2817.094727	73.988968
749.653320	1021.708862	3540.710449	2960.452637	76.964775
749.971008	921.585938	3583.945313	2844.401123	72.222229
750.288696	994.402588	3504.302002	2917.217773	76.609253
750.606262	921.585938	3561.189941	2742.002686	68.965523
750.923828	935.239075	3579.394287	2785.237549	69.965576
751.241272	946.616638	3545.261475	2771.584229	70.227661
751.558716	957.994263	3522.506104	2805.717041	72.049690
751.876038	983.024963	3508.853027	2785.237549	71.351357
752.193481	1001.229126	3497.475586	2787.512939	71.558792
752.510681	889.728638	3467.893799	2812.543701	74.580757
752.827942	957.994263	3431.485352	2817.094727	75.160988
753.145081	939.790100	3440.587402	2842.125488	76.069153
753.462219	955.718750	3495.199951	2742.002686	70.340508
753.779297	980.749451	3385.974854	2830.747803	76.915802
754.096375	951.167725	3404.179199	2794.339600	75.139145
754.413330	1012.606750	3431.485352	2637.328613	67.168396
754.730286	989.851563	3360.944336	2735.176025	73.608444
755.047119	1003.504700	3379.148438	2735.176025	72.892723
755.363892	1008.055725	3349.566650	2755.655762	74.635574
755.680725	919.310425	3370.046387	2614.573486	69.173637
755.997498	985.300537	3317.709229	2705.594238	73.756104
756.314148	978.473938	3308.607178	2664.634766	72.363281
756.630737	976.198425	3390.525879	2685.114502	70.782280
756.947327	998.953613	3356.393066	2628.226563	69.111977
757.263855	980.749451	3194.831299	2696.492188	77.492287
757.580261	1010.331238	3322.260254	2739.727051	74.803154
757.896729	996.678101	3324.535889	2676.012451	72.140755
758.213074	971.647400	3502.026611	2696.492188	68.165466
758.529419	1017.157776	3440.587402	2691.941162	69.107986
758.845642	971.647400	3436.036377	2694.216553	69.898430
759.161865	1046.739624	3547.536865	2755.655762	68.334854
759.478149	1010.331238	3445.138428	2826.196777	74.579437
759.794189	957.994263	3542.985840	2814.819336	71.830986
760.110229	987.576050	3529.332764	2796.614990	71.172775
760.426270	960.269775	3504.302002	2883.084961	75.581398
760.742249	978.473938	3413.281250	2862.605225	77.383179
761.058105	992.127075	3556.638916	2812.543701	70.984924
761.374023	971.647400	3568.016602	2830.747803	71.603851
761.689819	976.198425	3524.781738	2819.370361	72.321434
762.005554	1037.637451	3558.914551	2805.717041	70.126350
762.321289	932.963501	3561.189941	2789.788574	70.649353
762.636902	967.096313	3549.812500	2789.788574	70.572685
762.952515	1021.708862	3634.006836	2853.503174	70.121956
763.268127	937.514587	3686.343750	2933.146240	72.599335
763.583618	983.024963	3761.435791	2917.217773	69.615074
763.899048	992.127075	4152.825684	3222.137451	70.554344
764.214478	1019.433350	4612.480469	3540.710449	70.170998
764.529785	919.310425	4778.593750	3829.701416	75.412735
764.845093	964.820801	5006.145996	3872.936523	71.959457
765.160400	978.473938	4874.165527	3768.262451	71.612152
765.475586	964.820801	4874.165527	3713.649902	70.314316
765.790771	980.749451	4612.480469	3622.629150	72.744362
766.105835	973.922913	4434.990234	3481.546875	72.452332
766.420837	951.167725	4116.416992	3310.882813	74.550690
766.735840	935.239075	4082.284424	3238.066162	73.174255
767.050842	969.371887	3822.875000	3081.055176	74.003189
767.365662	1023.984375	3852.456787	3010.513916	70.233299
767.680542	992.127075	3643.108887	3049.197754	77.596558
767.995300	926.136963	3483.822266	2871.707275	76.067619
768.309998	969.371887	3520.230713	2883.084961	75.022308
768.624817	987.576050	3467.893799	2792.063965	72.752281
768.939392	951.167725	3506.577637	2817.094727	73.018700
769.254028	996.678101	3272.198975	2742.002686	76.699997
769.568481	969.371887	3281.301025	2803.441650	79.330711
769.882935	921.585938	3360.944336	2726.073975	73.973877
770.197388	992.127075	3274.474365	2578.165039	69.491531
770.511841	871.524475	3183.453613	2614.573486	75.393707
770.826172	923.861450	3183.453613	2635.052979	75.730103
771.140442	980.749451	3188.004639	2701.043213	77.938148
771.454651	989.851563	3185.729004	2594.093750	73.056999
771.768860	937.514587	3035.544678	2400.674561	69.739700
772.082886	992.127075	3172.075928	2482.593262	68.371620
772.397034	994.402588	3046.922363	2582.716064	77.383591
772.711060	935.239075	2994.585449	2500.797363	76.022095
773.025024	996.678101	3028.718262	2480.317627	73.012314
773.338928	919.310425	3062.851074	2457.562500	71.762215
773.652771	973.922913	3081.055176	2484.868652	71.706261
773.966614	1001.229126	2942.248291	2446.184814	74.443146
774.280457	971.647400	2962.728027	2537.205811	78.628578
774.594116	976.198425	2914.942139	2425.705078	74.765251
774.907776	978.473938	2928.595215	2371.092773	71.411911
775.221375	889.728638	2917.217773	2318.755615	70.482597
775.534912	960.269775	2965.003662	2357.439453	69.693520
775.848450	939.790100	2962.728027	2348.337402	69.628799
776.161926	1023.984375	2889.911377	2443.909424	76.097565
776.475342	939.790100	2871.707275	2366.541748	73.851593
776.788696	998.953613	2896.738037	2325.582275	69.904076
777.101990	937.514587	2860.329590	2357.439453	73.846153
777.415283	989.851563	2798.890625	2289.173828	71.823891
777.728516	926.136963	2812.543701	2255.041016	70.446320
778.041626	951.167725	2883.084961	2325.582275	71.142517
778.354736	910.208313	2794.339600	2325.582275	75.120773
778.667725	914.759338	2807.992676	2314.204590	73.918266
778.980774	971.647400	2773.859863	2336.959961	75.757584
779.293640	994.402588	2767.033203	2402.949951	79.460854
779.606567	967.096313	2803.441650	2330.133301	74.225525
779.919434	935.239075	2771.584229	2296.000488	74.101616
780.232239	914.759338	2714.696289	2182.224365	70.417191
780.544983	923.861450	2835.298828	2300.551514	72.023811
780.857666	953.443237	2817.094727	2336.959961	74.236877
781.170227	932.963501	2653.257324	2282.347412	78.439156
781.482849	901.106262	2771.584229	2252.765625	72.262779
781.795410	964.820801	2807.992676	2234.561523	68.888893
782.107910	957.994263	2676.012451	2266.418701	76.158943
782.420288	914.759338	2628.226563	2198.153076	74.900398
782.732666	1005.780212	2694.216553	2164.020264	68.598381
783.044983	1026.259888	2612.297852	2148.091553	70.731705
783.357300	1017.157776	2605.471436	2193.602051	74.068764
783.669495	1083.147949	2678.288086	2182.224365	68.901558
783.981689	942.065613	2707.869873	2184.500000	70.360817
784.293762	1001.229126	2632.777588	2164.020264	71.269173
784.605835	1046.739624	2569.062988	2173.122314	73.991028
784.917908	1035.361938	2666.910400	2032.040039	61.087864
785.229858	978.473938	2532.654541	2141.265137	74.816994
785.541748	935.239075	2459.837891	2057.070801	73.582092
785.853577	942.065613	2582.716064	2079.825928	69.348122
786.165405	1030.810913	2523.552490	2043.417725	67.835373
786.477173	1021.708862	2537.205811	2045.693237	67.567566
786.788879	989.851563	2521.277100	1986.529663	65.081718
787.100525	971.647400	2530.379150	2050.244141	69.197075
787.412109	928.412476	2478.042236	2038.866699	71.659325
787.723694	898.830688	2450.735840	2016.111450	71.994141
788.035156	948.892151	2478.042236	2075.274902	73.660706
788.346558	951.167725	2612.297852	2154.918213	72.465752
788.658081	960.269775	2807.992676	2123.060791	62.931026
788.969360	944.341125	2685.114502	2159.469238	69.803925
789.280640	1014.882263	2707.869873	2266.418701	73.924721
789.591919	946.616638	2748.829102	2211.806152	70.202019
789.903076	953.443237	2814.819336	2330.133301	73.960876
790.214172	973.922913	2753.380127	2184.500000	68.030693
790.525269	964.820801	2662.359375	2138.989502	69.168900
790.836365	973.922913	2682.839111	2134.438477	67.909447
791.147339	948.892151	2557.685303	2193.602051	77.369171
791.458191	1014.882263	2537.205811	2127.612061	73.094170
791.769104	994.402588	2516.726074	2018.386963	67.264572
792.079895	1026.259888	2455.286865	1941.019287	64.012749
792.390686	1035.361938	2380.194824	2000.182739	71.742805
792.701416	1028.535400	2334.684326	1986.529663	73.344948
793.012085	939.790100	2402.949951	1975.152100	70.762054
793.322693	937.514587	2443.909424	2016.111450	71.601212
793.633240	967.096313	2453.011475	1995.631714	69.218987
793.943787	980.749451	2400.674561	1840.896362	60.576923
794.254272	953.443237	2357.439453	1956.947876	71.474884
794.564636	1012.606750	2375.643799	1988.805176	71.619354
794.875000	939.790100	2357.439453	2000.182739	74.799355
795.185303	1026.259888	2414.327637	2004.733887	70.491806
795.495544	1037.637451	2325.582275	1991.080688	74.028267
795.805786	985.300537	2466.664551	1945.570313	64.823349
796.115906	998.953613	2418.878662	1979.703125	69.070511
796.426025	928.412476	2327.857666	2016.111450	77.723587
796.736023	987.576050	2421.154053	2004.733887	70.952385
797.045959	935.239075	2434.807373	2043.417725	73.899849
797.355896	985.300537	2596.369141	2179.948975	74.152550
797.665833	944.341125	2437.082764	2070.723877	75.457314
797.975708	967.096313	2514.450439	2084.376953	72.205879
798.285461	1003.504700	2491.695313	2088.927979	72.935768
798.595154	921.585938	2503.072998	1975.152100	66.618706
798.904846	955.718750	2487.144287	1956.947876	65.378899
799.214478	1026.259888	2352.888428	1959.223389	70.325905
799.524109	953.443237	2471.215576	1977.427612	67.466270
799.833557	887.453125	2414.327637	1870.478149	64.381523
800.143005	998.953613	2396.123291	1936.468262	67.100990
800.452393	992.127075	2368.817139	1936.468262	68.595047
800.761780	976.198425	2359.715088	1831.794189	61.842102
801.071106	1023.984375	2366.541748	1847.722900	61.355927
801.380371	923.861450	2261.867676	1872.753662	70.918373
801.689575	957.994263	2230.010498	1902.335449	74.239708
801.998718	951.167725	2243.663574	1915.988525	74.647881
802.307800	946.616638	2323.306641	1888.682251	68.429756
802.616882	987.576050	2261.867676	1852.273926	67.857140
802.925903	1021.708862	2250.489990	1859.100464	68.148148
803.234863	932.963501	2141.265137	1756.702026	68.173256
803.543701	1023.984375	2268.694336	1870.478149	68.007309
803.852539	955.718750	2159.469238	1875.029175	76.370514
804.161316	967.096313	2141.265137	1888.682251	78.488365
804.470032	957.994263	2202.704102	1818.141113	69.104202
804.778809	1008.055725	2280.071777	1781.732788	60.822899
805.087341	923.861450	2175.397949	1875.029175	76.000000
805.395935	1012.606750	2195.877686	1788.559326	65.576912
805.704468	964.820801	2173.122314	1863.651489	74.387947
806.012939	964.820801	2293.724854	1831.794189	65.239731
806.321350	962.545288	2261.867676	1979.703125	78.283714
806.629761	964.820801	2273.245361	1918.264038	72.869560
806.938049	889.728638	2341.510986	1913.713013	70.532913
807.246277	1014.882263	2227.734863	1913.713013	74.108826
807.554504	992.127075	2204.979736	1929.641602	77.298302
807.862671	971.647400	2234.561523	1820.416626	67.207207
808.170715	894.279663	2314.204590	1856.824951	67.788460
808.478821	944.341125	2113.958740	1868.202637	78.988335
808.786804	1008.055725	2157.193604	1913.713013	78.811890
809.094727	989.851563	2184.500000	1872.753662	73.904762
809.402649	1003.504700	2259.592041	1806.763550	63.949280
809.710510	1037.637451	2095.754639	1856.824951	77.419357
810.018311	983.024963	2095.754639	1813.590088	74.642128
810.326050	1008.055725	2027.489014	1824.967651	80.133926
810.633667	1012.606750	2143.540527	1724.844727	62.977863
810.941345	1021.708862	2111.683350	1806.763550	72.025055
811.248901	960.269775	2029.764526	1781.732788	76.808510
811.556396	960.269775	2034.315552	1731.671387	71.822044
811.863892	935.239075	2054.795166	1720.293701	70.121948
812.171326	944.341125	2043.417725	1733.946899	71.842651
812.478699	967.096313	2036.591064	1738.497925	72.127670
812.786011	953.443237	2036.591064	1677.058838	66.806725
813.093262	921.585938	2027.489014	1704.365112	70.781898
813.400391	921.585938	2123.060791	1706.640625	65.340919
813.707642	939.790100	2018.386963	1658.854614	66.666656
814.014709	944.341125	2059.346436	1681.609863	66.122437
814.321716	1026.259888	2077.550537	1688.436401	62.987007
814.628723	955.718750	2154.918213	1756.702026	66.793167
814.935669	1037.637451	2011.560425	1756.702026	73.831772
815.242554	1010.331238	1970.601074	1711.191650	72.985779
815.549438	978.473938	2041.142212	1711.191650	68.950752
815.856201	948.892151	1991.080688	1681.609863	70.305679
816.162964	1012.606750	2022.937988	1688.436401	66.891891
816.469604	1001.229126	2084.376953	1704.365112	64.915977
816.776184	878.351013	2020.662476	1752.151001	76.494019
817.082825	964.820801	2127.612061	1784.008301	70.450089
817.389343	955.718750	2041.142212	1763.528564	74.423470
817.695801	866.973450	2059.346436	1724.844727	71.946548
818.002197	1037.637451	2075.274902	1813.590088	74.780708
818.308533	1033.086426	2070.723877	1658.854614	60.307018
818.614868	1023.984375	2166.295898	1822.692139	69.920311
818.921143	935.239075	2116.234375	1702.089600	64.932564
819.227356	960.269775	2061.621826	1715.742676	68.595039
819.533447	919.310425	2054.795166	1881.855713	84.769547
819.839539	948.892151	2152.642578	1797.661377	70.510399
820.145569	917.034912	2164.020264	1938.743774	81.934311
820.451538	969.371887	2318.755615	1909.161987	69.645874
820.757568	1026.259888	2496.246338	1904.610962	59.752323
821.063416	957.994263	2650.981689	2109.407715	68.010750
821.369263	969.371887	2721.522949	2091.203613	64.025970
821.675049	946.616638	2860.329590	2225.459229	66.825203
821.980713	946.616638	3001.411865	2357.439453	68.660019
822.286438	894.279663	3342.739990	2730.625000	75.000000
822.592102	951.167725	4150.549805	3240.341553	71.550499
822.897583	971.647400	6237.202637	4639.787109	69.662926
823.203125	976.198425	8794.887695	6401.040039	69.383003
823.508545	946.616638	10378.650391	7370.412109	68.106148
823.813965	894.279663	10824.652344	7850.546875	70.050407
824.119263	996.678101	9841.627930	7199.748047	70.131203
824.424622	976.198425	8301.099609	6005.099609	68.654869
824.729858	985.300537	6979.022461	5204.116211	70.387245
825.035095	989.851563	6162.110352	4714.878906	72.019356
825.340149	937.514587	5295.136719	4052.702637	71.488258
825.645264	994.402588	4894.645020	3631.731201	67.619606
825.950256	928.412476	4541.939453	3522.506104	71.788414
826.255310	980.749451	4271.152344	3301.780762	70.539429
826.560242	1055.841675	4016.294189	3021.891602	66.410454
826.865112	973.922913	3743.231689	2978.656738	72.391129
827.169922	1026.259888	3681.792725	2930.870850	71.722366
827.474670	960.269775	3734.129639	3026.442627	74.487282
827.779419	983.024963	4289.356934	3265.372314	69.029587
828.084045	987.576050	4744.460938	3699.996826	72.198669
828.388672	969.371887	5288.310547	3904.793701	67.966278
828.693176	955.718750	5019.798828	3886.589600	72.116463
828.997681	971.647400	4548.766113	3536.159424	71.692116
829.302124	1042.188477	4050.427002	3149.320801	70.045387
829.606567	973.922913	3538.434814	2864.880615	73.735580
829.910828	953.443237	3306.331787	2521.277100	66.634422
830.215149	1071.770264	3017.340576	2405.225586	68.538017
830.519348	983.024963	2883.084961	2286.898438	68.622757
830.823547	901.106262	2826.196777	2129.887451	63.829788
831.127686	957.994263	2573.614014	2045.693237	67.323944
831.431763	998.953613	2512.175049	2025.213501	67.819542
831.735779	1033.086426	2261.867676	1954.672363	75.000000
832.039734	1012.606750	2266.418701	1829.518677	65.154259
832.343628	1003.504700	2125.336426	1865.927002	76.876259
832.647461	1012.606750	2157.193604	1854.549438	73.558647
832.951233	1014.882263	2239.112549	1856.824951	68.773232
833.255127	1046.739624	2143.540527	1943.294800	81.742744
833.558777	973.922913	2239.112549	1843.171875	68.705032
833.862366	1019.433350	2437.082764	1875.029175	60.353130
834.165955	957.994263	2637.328613	2095.754639	67.750679
834.469482	998.953613	2946.799316	2430.256104	73.481308
834.773010	980.749451	3397.352539	2751.104736	73.258011
835.076416	948.892151	3606.700439	2821.645752	70.462326
835.379822	957.994263	3549.812500	2742.002686	68.832306
835.683105	939.790100	3297.229736	2548.583252	68.243240
835.986389	1042.188477	2992.309814	2325.582275	65.810974
836.289612	976.198425	2771.584229	2214.081787	68.948044
836.592773	987.576050	2621.399902	2032.040039	63.927578
836.895874	957.994263	2519.001465	1993.356201	66.326530
837.198914	1001.229126	2407.500977	1950.121338	67.475731
837.501892	996.678101	2350.613037	1925.090576	68.571426
837.804871	866.973450	2275.520752	1870.478149	71.243942
838.107666	962.545288	2148.091553	1822.692139	72.552788
838.410583	1042.188477	2018.386963	1656.579102	62.937061
838.713379	969.371887	1929.641602	1731.671387	79.383896
839.016052	969.371887	1920.539551	1631.548462	69.617226
839.318787	983.024963	1852.273926	1597.415649	70.680634
839.621338	998.953613	1784.008301	1558.731689	71.304344
839.923889	1014.882263	1815.865601	1558.731689	67.897720
840.226440	1080.872437	1784.008301	1513.221313	61.488667
840.528931	1005.780212	1947.845825	1579.211426	60.869560
840.831299	976.198425	1988.805176	1638.375000	65.393257
841.133606	942.065613	2134.438477	1779.457275	70.229012
841.435913	942.065613	2084.376953	1786.283813	73.904388
841.738220	1008.055725	1925.090576	1674.783325	72.704720
842.040405	983.024963	1950.121338	1679.334351	72.000000
842.342529	1001.229126	1849.998413	1567.833862	66.756035
842.644592	923.861450	1872.753662	1570.109375	68.105515
842.946594	983.024963	1772.630737	1576.935913	75.216133
843.248596	928.412476	1777.181763	1403.996338	56.032173
843.550598	960.269775	1733.946899	1565.558350	78.235291
843.852478	969.371887	1708.916138	1558.731689	79.692299
844.154236	1044.463989	1702.089600	1495.017212	68.512115
844.455994	978.473938	1649.752563	1429.027100	67.118652
844.757690	967.096313	1624.721802	1365.312500	60.553642
845.059326	1046.739624	1645.201538	1356.210449	51.711029
845.360962	953.443237	1588.313477	1422.200562	73.835136
845.662476	914.759338	1488.190552	1328.904175	72.222237
845.963989	957.994263	1504.119263	1360.761475	73.750008
846.265381	951.167725	1558.731689	1349.383789	65.543068
846.566772	935.239075	1515.496826	1317.526489	65.882347
846.868042	912.483826	1465.435425	1315.250977	72.839493
847.169373	973.922913	1529.150024	1328.904175	63.934425
847.470581	923.861450	1517.772339	1269.740601	58.237549
847.771729	1017.157776	1481.364014	1292.495850	59.313740
848.072815	976.198425	1513.221313	1262.914063	53.389835
848.373901	992.127075	1551.905151	1281.118164	51.626011
848.674866	926.136963	1435.853638	1278.842651	69.196419
848.975891	942.065613	1401.720825	1310.699951	80.198013
849.276794	964.820801	1510.945801	1258.363037	53.750008
849.577637	960.269775	1581.486938	1349.383789	62.637356
849.878357	1003.504700	1451.782227	1217.403687	47.715752
850.179077	955.718750	1463.159912	1349.383789	77.578461
850.479736	987.576050	1417.649414	1303.873413	73.544975
850.780396	992.127075	1415.373901	1226.505737	55.376354
851.080994	1017.157776	1499.568237	1287.944824	56.132084
851.381470	1023.984375	1440.404663	1199.199463	42.076500
851.681946	951.167725	1410.822876	1285.669312	72.772293
851.982361	1019.433350	1403.996338	1285.669312	69.230782
852.282715	955.718750	1454.057739	1301.597900	69.406403
852.583008	962.545288	1351.659302	1274.291626	80.116966
852.883240	983.024963	1403.996338	1249.260864	63.243233
853.183411	930.687988	1454.057739	1315.250977	73.478264
853.483521	1005.780212	1415.373901	1176.444214	41.666656
853.783630	951.167725	1422.200562	1233.332275	59.903370
854.083679	1069.494751	1399.445313	1256.087524	56.551739
854.383667	962.545288	1390.343262	1256.087524	68.617027
854.683533	898.830688	1442.680176	1281.118164	70.292885
854.983337	976.198425	1363.036987	1269.740601	75.882347
855.283203	969.371887	1431.302612	1310.699951	73.891617
855.582886	971.647400	1467.710938	1228.781250	51.834862
855.882629	960.269775	1413.098389	1299.322388	74.874382
856.182312	994.402588	1401.720825	1256.087524	64.245819
856.481873	1014.882263	1426.751587	1253.812012	58.011059
856.781372	1037.637451	1390.343262	1278.842651	68.387077
857.080872	987.576050	1338.006226	1267.465088	79.870132
857.380310	935.239075	1376.690063	1226.505737	65.979385
857.679688	964.820801	1335.730713	1269.740601	82.208588
857.979004	973.922913	1367.588013	1276.567139	76.878601
858.278259	935.239075	1360.761475	1210.577026	64.705864
858.577454	914.759338	1360.761475	1221.954712	68.877556
858.876648	953.443237	1365.312500	1196.923950	59.116020
859.175720	960.269775	1417.649414	1249.260864	63.184074
859.474792	973.922913	1335.730713	1237.883301	72.955971
859.773743	1017.157776	1358.485962	1301.597900	83.333321
860.072693	1014.882263	1415.373901	1244.709839	57.386360
860.371521	1012.606750	1433.578125	1187.821899	41.621632
860.670349	987.576050	1315.250977	1187.821899	61.111130
860.969116	967.096313	1481.364014	1322.077637	69.026566
861.267883	957.994263	1322.077637	1253.812012	81.250000
861.566589	946.616638	1285.669312	1262.914063	93.288582
861.865112	1014.882263	1422.200562	1287.944824	67.039108
862.163635	994.402588	1365.312500	1237.883301	65.644165
862.462158	1010.331238	1369.863525	1276.567139	74.050621
862.760620	964.820801	1394.894287	1287.944824	75.132278
863.059021	967.096313	1408.547363	1226.505737	58.762897
863.357361	1010.331238	1390.343262	1208.301514	52.095791
863.655640	1053.566162	1335.730713	1224.230225	60.483879
863.953857	910.208313	1365.312500	1149.138062	52.500011
864.251953	973.922913	1435.853638	1262.914063	62.561577
864.550110	980.749451	1344.832764	1299.322388	87.500008
864.848206	905.657288	1340.281738	1240.158813	76.963348
865.146179	1012.606750	1347.108276	1210.577026	59.183670
865.444092	980.749451	1287.944824	1265.189575	92.592583
865.741943	985.300537	1422.200562	1201.474976	49.479156
866.039795	976.198425	1349.383789	1228.781250	67.682938
866.337646	989.851563	1351.659302	1190.097412	55.345928
866.635376	996.678101	1435.853638	1199.199463	46.113991
866.933044	969.371887	1435.853638	1315.250977	74.146332
867.230652	994.402588	1426.751587	1244.709839	57.894722
867.528198	937.514587	1333.455200	1219.679199	71.264374
867.825745	962.545288	1406.271851	1174.168701	47.692303
868.123230	983.024963	1333.455200	1278.842651	84.415573
868.420593	985.300537	1338.006226	1244.709839	73.548378
868.717896	926.136963	1449.506714	1155.964600	43.913052
869.015198	953.443237	1365.312500	1180.995239	55.248600
869.312439	896.555176	1312.975464	1224.230225	78.688538
869.609619	889.728638	1374.414551	1210.577026	66.197174
869.906738	942.065613	1369.863525	1219.679199	64.893631
870.203796	946.616638	1415.373901	1212.852539	56.796112
870.500854	964.820801	1376.690063	1169.617676	49.723759
870.797791	892.004150	1324.353149	1167.342163	63.684204
871.094666	973.922913	1394.894287	1231.056763	61.081078
871.391602	1010.331238	1342.557251	1265.189575	76.712334
871.688293	992.127075	1328.904175	1217.403687	66.891907
871.985107	969.371887	1358.485962	1185.546387	55.555557
872.281738	994.402588	1358.485962	1240.158813	67.499985
872.578369	998.953613	1347.108276	1242.434326	69.934639
872.874939	907.932800	1381.241089	1294.771362	81.730782
873.171509	910.208313	1388.067749	1315.250977	84.761887
873.467957	957.994263	1317.526489	1219.679199	72.784836
873.764343	919.310425	1365.312500	1274.291626	79.591827
874.060669	937.514587	1326.628662	1267.465088	84.795311
874.356995	953.443237	1338.006226	1281.118164	85.207092
874.653198	1005.780212	1378.965576	1231.056763	60.365860
874.949463	907.932800	1338.006226	1201.474976	68.253967
875.245544	1017.157776	1358.485962	1219.679199	59.333344
875.541626	973.922913	1417.649414	1201.474976	51.282055
875.837646	985.300537	1317.526489	1251.536499	80.137016
876.133606	960.269775	1365.312500	1246.985352	70.786499
876.429565	971.647400	1353.934937	1180.995239	54.761879
876.725403	994.402588	1317.526489	1178.719727	57.042248
877.021179	994.402588	1403.996338	1215.128052	53.888874
877.316956	962.545288	1403.996338	1317.526489	80.412361
877.612610	919.310425	1365.312500	1199.199463	62.755096
877.908203	987.576050	1526.874512	1290.220337	56.118145
878.203857	951.167725	1397.169800	1203.750488	56.632645
878.499390	953.443237	1419.924927	1253.812012	64.390259
878.794800	989.851563	1381.241089	1272.016113	72.093025
879.090271	987.576050	1372.139038	1190.097412	52.662727
879.385559	921.585938	1435.853638	1306.148926	74.778755
879.680847	998.953613	1403.996338	1258.363037	64.044952
879.976196	1005.780212	1483.639526	1365.312500	75.238106
880.271301	957.994263	1515.496826	1358.485962	71.836746
880.566467	992.127075	1556.456177	1383.516602	69.354836
880.861572	994.402588	1624.721802	1456.333252	73.285194
881.156555	869.248962	1820.416626	1542.803101	70.813400
881.451477	973.922913	2004.733887	1772.630737	77.483437
881.746460	1019.433350	2703.318604	2143.540527	66.756760
882.041321	921.585938	3431.485352	2710.145264	71.260201
882.336121	905.657288	4384.928711	3233.515137	66.906479
882.630798	932.963501	4644.337891	3465.618164	68.240349
882.925537	914.759338	4803.624512	3490.648926	66.237564
883.220215	1017.157776	4485.051270	3247.168213	64.304466
883.514771	910.208313	4068.631104	3110.636963	69.668594
883.809326	907.932800	3690.894775	2887.635986	71.136551
884.103760	942.065613	3458.791504	2705.594238	70.072334
884.398132	917.034912	3217.586426	2528.103516	70.029671
884.692505	889.728638	3106.085938	2391.572266	67.761795
884.986816	946.616638	2899.013428	2311.929199	69.930077
885.281067	1001.229126	2714.696289	2150.367188	67.065079
885.575256	1012.606750	2514.450439	2036.591064	68.181816
885.869385	1014.882263	2371.092773	1941.019287	68.288589
886.163452	989.851563	2118.509766	1718.018188	64.516136
886.457458	1019.433350	2011.560425	1711.191650	69.724770
886.751465	1046.739624	1861.375977	1549.629639	61.731842
887.045410	962.545288	1665.681274	1540.527588	82.200645
887.339233	962.545288	1647.477051	1499.568237	78.405319
887.632996	971.647400	1613.344238	1469.986450	77.659576
887.926758	960.269775	1520.047852	1397.169800	78.048790
888.220398	1042.188477	1592.864502	1285.669312	44.214897
888.514099	1012.606750	1506.394775	1324.353149	63.133648
888.807678	1010.331238	1501.843750	1358.485962	70.833336
889.101196	932.963501	1510.945801	1278.842651	59.842518
889.394653	962.545288	1508.670288	1338.006226	68.750000
889.688049	978.473938	1538.252075	1272.016113	52.439022
889.981384	1010.331238	1460.884399	1201.474976	42.424236
890.274719	1017.157776	1413.098389	1240.158813	56.321838
890.567932	948.892151	1388.067749	1237.883301	65.803101
>>>>>End Processed Spectral Data<<<<<
